participant,block,trial,resp,RT,f,eq
LN,1,1,0,0.267,0,-4.30390213
LN,1,1,0,0.267,107.23874129,-0.46296007
LN,1,1,0,0.267,230.90626491,-7.03344143
LN,1,1,0,0.267,373.51943078,9.08466726
LN,1,1,0,0.267,537.98067721,4.311361
LN,1,1,0,0.267,727.63709087,-1.76604418
LN,1,1,0,0.267,946.34852608,-6.32678074
LN,1,1,0,0.267,1198.56615988,-2.24291887
LN,1,1,0,0.267,1489.42308164,-1.58980187
LN,1,1,0,0.267,1824.83876082,-2.36515296
LN,1,1,0,0.267,2211.63951892,4.40415086
LN,1,1,0,0.267,2657.69745762,-3.26759957
LN,1,1,0,0.267,3172.09067045,3.09722775
LN,1,1,0,0.267,3765.28799853,0.40084333
LN,1,1,0,0.267,4449.36209061,-7.18584308
LN,1,1,0,0.267,5238.23510351,2.29228009
LN,1,1,0,0.267,6147.96204348,-4.32733781
LN,1,1,0,0.267,7197.05751481,0.28470983
LN,1,1,0,0.267,8406.87252591,-1.26128963
LN,1,1,0,0.267,9802.02902128,-3.51536684
LN,1,1,0,0.267,11410.92098301,3.36013579
LN,1,1,0,0.267,13266.29230024,1.8096325
LN,1,1,0,0.267,15405.90316702,-1.9779153
LN,1,1,0,0.267,17873.29857123,-9.83765808
LN,1,1,0,0.267,20718.69451459,2.05413896
LN,1,1,0,0.267,24000,-3.10169445
LN,1,1,1,0.267,0,-4.92413265
LN,1,1,1,0.267,107.23874129,-12.3526192
LN,1,1,1,0.267,230.90626491,-3.15800589
LN,1,1,1,0.267,373.51943078,3.60543908
LN,1,1,1,0.267,537.98067721,0.71652027
LN,1,1,1,0.267,727.63709087,2.43036753
LN,1,1,1,0.267,946.34852608,1.90607826
LN,1,1,1,0.267,1198.56615988,-7.46957443
LN,1,1,1,0.267,1489.42308164,-2.7323455
LN,1,1,1,0.267,1824.83876082,-4.88661568
LN,1,1,1,0.267,2211.63951892,-4.1508359
LN,1,1,1,0.267,2657.69745762,-2.21471602
LN,1,1,1,0.267,3172.09067045,-5.7782986
LN,1,1,1,0.267,3765.28799853,-4.28736956
LN,1,1,1,0.267,4449.36209061,-4.34747865
LN,1,1,1,0.267,5238.23510351,5.36825437
LN,1,1,1,0.267,6147.96204348,-3.09331362
LN,1,1,1,0.267,7197.05751481,-1.99379087
LN,1,1,1,0.267,8406.87252591,-4.61624869
LN,1,1,1,0.267,9802.02902128,-2.74246062
LN,1,1,1,0.267,11410.92098301,-5.91779854
LN,1,1,1,0.267,13266.29230024,-0.61521602
LN,1,1,1,0.267,15405.90316702,7.67269795
LN,1,1,1,0.267,17873.29857123,-10.03783273
LN,1,1,1,0.267,20718.69451459,-0.31890763
LN,1,1,1,0.267,24000,3.77563466
LN,1,2,0,0.274,0,-2.4501274
LN,1,2,0,0.274,107.23874129,-0.29493725
LN,1,2,0,0.274,230.90626491,3.68508286
LN,1,2,0,0.274,373.51943078,1.04796219
LN,1,2,0,0.274,537.98067721,6.33468311
LN,1,2,0,0.274,727.63709087,-1.68233399
LN,1,2,0,0.274,946.34852608,9.54118277
LN,1,2,0,0.274,1198.56615988,3.6640128
LN,1,2,0,0.274,1489.42308164,9.96854812
LN,1,2,0,0.274,1824.83876082,2.53591441
LN,1,2,0,0.274,2211.63951892,8.07687647
LN,1,2,0,0.274,2657.69745762,-3.34138125
LN,1,2,0,0.274,3172.09067045,4.15263384
LN,1,2,0,0.274,3765.28799853,5.93548365
LN,1,2,0,0.274,4449.36209061,3.86280849
LN,1,2,0,0.274,5238.23510351,4.0696788
LN,1,2,0,0.274,6147.96204348,-1.33501213
LN,1,2,0,0.274,7197.05751481,5.26547977
LN,1,2,0,0.274,8406.87252591,-0.89877827
LN,1,2,0,0.274,9802.02902128,-2.07985105
LN,1,2,0,0.274,11410.92098301,-2.46378908
LN,1,2,0,0.274,13266.29230024,3.63165991
LN,1,2,0,0.274,15405.90316702,-4.28874196
LN,1,2,0,0.274,17873.29857123,-0.68058537
LN,1,2,0,0.274,20718.69451459,0.06641594
LN,1,2,0,0.274,24000,0.86705039
LN,1,2,1,0.274,0,-1.26011743
LN,1,2,1,0.274,107.23874129,4.99244479
LN,1,2,1,0.274,230.90626491,0.0186102
LN,1,2,1,0.274,373.51943078,-3.88169826
LN,1,2,1,0.274,537.98067721,-4.96526224
LN,1,2,1,0.274,727.63709087,-3.22222683
LN,1,2,1,0.274,946.34852608,-4.4410463
LN,1,2,1,0.274,1198.56615988,4.30470099
LN,1,2,1,0.274,1489.42308164,-9.51764772
LN,1,2,1,0.274,1824.83876082,2.49696219
LN,1,2,1,0.274,2211.63951892,3.26831508
LN,1,2,1,0.274,2657.69745762,2.48802179
LN,1,2,1,0.274,3172.09067045,8.14849
LN,1,2,1,0.274,3765.28799853,2.27804057
LN,1,2,1,0.274,4449.36209061,-3.06879658
LN,1,2,1,0.274,5238.23510351,-2.00083679
LN,1,2,1,0.274,6147.96204348,-1.77286568
LN,1,2,1,0.274,7197.05751481,-7.74039508
LN,1,2,1,0.274,8406.87252591,9.19318037
LN,1,2,1,0.274,9802.02902128,10.67415626
LN,1,2,1,0.274,11410.92098301,4.95829644
LN,1,2,1,0.274,13266.29230024,-0.8203992
LN,1,2,1,0.274,15405.90316702,0.37532814
LN,1,2,1,0.274,17873.29857123,0.49426896
LN,1,2,1,0.274,20718.69451459,0.66205822
LN,1,2,1,0.274,24000,8.8949039
LN,1,3,0,0.128,0,-8.45078345
LN,1,3,0,0.128,107.23874129,-2.36659078
LN,1,3,0,0.128,230.90626491,-0.22149884
LN,1,3,0,0.128,373.51943078,-1.82286589
LN,1,3,0,0.128,537.98067721,0.73405543
LN,1,3,0,0.128,727.63709087,8.25744484
LN,1,3,0,0.128,946.34852608,-0.68328521
LN,1,3,0,0.128,1198.56615988,-0.52696564
LN,1,3,0,0.128,1489.42308164,6.72915106
LN,1,3,0,0.128,1824.83876082,-1.98609933
LN,1,3,0,0.128,2211.63951892,3.89925835
LN,1,3,0,0.128,2657.69745762,8.06560189
LN,1,3,0,0.128,3172.09067045,5.89998648
LN,1,3,0,0.128,3765.28799853,-6.60746678
LN,1,3,0,0.128,4449.36209061,2.63756767
LN,1,3,0,0.128,5238.23510351,4.65547359
LN,1,3,0,0.128,6147.96204348,-2.1760437
LN,1,3,0,0.128,7197.05751481,6.36862994
LN,1,3,0,0.128,8406.87252591,-4.02297826
LN,1,3,0,0.128,9802.02902128,9.39414968
LN,1,3,0,0.128,11410.92098301,-9.6947348
LN,1,3,0,0.128,13266.29230024,7.46631924
LN,1,3,0,0.128,15405.90316702,-4.28908709
LN,1,3,0,0.128,17873.29857123,-3.52047577
LN,1,3,0,0.128,20718.69451459,1.93197849
LN,1,3,0,0.128,24000,-10.79223402
LN,1,3,1,0.128,0,-5.94124265
LN,1,3,1,0.128,107.23874129,6.09466208
LN,1,3,1,0.128,230.90626491,-1.30837676
LN,1,3,1,0.128,373.51943078,-2.62087291
LN,1,3,1,0.128,537.98067721,-0.72825636
LN,1,3,1,0.128,727.63709087,2.27883446
LN,1,3,1,0.128,946.34852608,-7.21500756
LN,1,3,1,0.128,1198.56615988,5.3029819
LN,1,3,1,0.128,1489.42308164,7.27081877
LN,1,3,1,0.128,1824.83876082,1.07428504
LN,1,3,1,0.128,2211.63951892,-7.367384
LN,1,3,1,0.128,2657.69745762,0.88609472
LN,1,3,1,0.128,3172.09067045,8.82533366
LN,1,3,1,0.128,3765.28799853,-0.78255455
LN,1,3,1,0.128,4449.36209061,-3.98013136
LN,1,3,1,0.128,5238.23510351,10.72852375
LN,1,3,1,0.128,6147.96204348,2.3912617
LN,1,3,1,0.128,7197.05751481,5.00237242
LN,1,3,1,0.128,8406.87252591,9.47288224
LN,1,3,1,0.128,9802.02902128,-0.48397206
LN,1,3,1,0.128,11410.92098301,7.07209867
LN,1,3,1,0.128,13266.29230024,-0.65911954
LN,1,3,1,0.128,15405.90316702,5.16940718
LN,1,3,1,0.128,17873.29857123,0.46897822
LN,1,3,1,0.128,20718.69451459,0.9573666
LN,1,3,1,0.128,24000,5.15019207
LN,1,4,0,0.359,0,6.63330598
LN,1,4,0,0.359,107.23874129,-0.46371407
LN,1,4,0,0.359,230.90626491,2.50439195
LN,1,4,0,0.359,373.51943078,-6.01723027
LN,1,4,0,0.359,537.98067721,5.88295622
LN,1,4,0,0.359,727.63709087,10.9901349
LN,1,4,0,0.359,946.34852608,4.09077551
LN,1,4,0,0.359,1198.56615988,-1.60860327
LN,1,4,0,0.359,1489.42308164,2.20931773
LN,1,4,0,0.359,1824.83876082,-3.00497201
LN,1,4,0,0.359,2211.63951892,6.57652511
LN,1,4,0,0.359,2657.69745762,0.19223131
LN,1,4,0,0.359,3172.09067045,-12.40054384
LN,1,4,0,0.359,3765.28799853,2.80857778
LN,1,4,0,0.359,4449.36209061,1.59506218
LN,1,4,0,0.359,5238.23510351,-4.82570315
LN,1,4,0,0.359,6147.96204348,1.88245501
LN,1,4,0,0.359,7197.05751481,0.12993266
LN,1,4,0,0.359,8406.87252591,0.96912542
LN,1,4,0,0.359,9802.02902128,-5.45441646
LN,1,4,0,0.359,11410.92098301,5.15977375
LN,1,4,0,0.359,13266.29230024,-2.17578626
LN,1,4,0,0.359,15405.90316702,-4.10826289
LN,1,4,0,0.359,17873.29857123,2.05913179
LN,1,4,0,0.359,20718.69451459,-0.11780592
LN,1,4,0,0.359,24000,-5.28009139
LN,1,4,1,0.359,0,1.69309068
LN,1,4,1,0.359,107.23874129,-2.94778495
LN,1,4,1,0.359,230.90626491,-5.20339889
LN,1,4,1,0.359,373.51943078,4.58961111
LN,1,4,1,0.359,537.98067721,-1.89754902
LN,1,4,1,0.359,727.63709087,-1.89486922
LN,1,4,1,0.359,946.34852608,-1.01159748
LN,1,4,1,0.359,1198.56615988,5.38512104
LN,1,4,1,0.359,1489.42308164,2.4970136
LN,1,4,1,0.359,1824.83876082,-0.14630058
LN,1,4,1,0.359,2211.63951892,6.39751925
LN,1,4,1,0.359,2657.69745762,1.35035902
LN,1,4,1,0.359,3172.09067045,0.80057883
LN,1,4,1,0.359,3765.28799853,-9.12110892
LN,1,4,1,0.359,4449.36209061,1.70774652
LN,1,4,1,0.359,5238.23510351,-0.52128758
LN,1,4,1,0.359,6147.96204348,-0.02779695
LN,1,4,1,0.359,7197.05751481,1.8260396
LN,1,4,1,0.359,8406.87252591,-6.70338394
LN,1,4,1,0.359,9802.02902128,3.14844273
LN,1,4,1,0.359,11410.92098301,5.92961663
LN,1,4,1,0.359,13266.29230024,1.72733047
LN,1,4,1,0.359,15405.90316702,-5.00501101
LN,1,4,1,0.359,17873.29857123,-2.12360445
LN,1,4,1,0.359,20718.69451459,2.66096297
LN,1,4,1,0.359,24000,4.88337812
LN,1,5,0,0.233,0,0.1999813
LN,1,5,0,0.233,107.23874129,6.39815573
LN,1,5,0,0.233,230.90626491,0.32760521
LN,1,5,0,0.233,373.51943078,-0.53901386
LN,1,5,0,0.233,537.98067721,1.59695218
LN,1,5,0,0.233,727.63709087,2.64371336
LN,1,5,0,0.233,946.34852608,6.84667854
LN,1,5,0,0.233,1198.56615988,-3.20030298
LN,1,5,0,0.233,1489.42308164,-2.9725247
LN,1,5,0,0.233,1824.83876082,-2.66322682
LN,1,5,0,0.233,2211.63951892,-7.7341192
LN,1,5,0,0.233,2657.69745762,-4.5584793
LN,1,5,0,0.233,3172.09067045,4.80673975
LN,1,5,0,0.233,3765.28799853,-1.16330064
LN,1,5,0,0.233,4449.36209061,1.59343017
LN,1,5,0,0.233,5238.23510351,4.98855298
LN,1,5,0,0.233,6147.96204348,2.32259615
LN,1,5,0,0.233,7197.05751481,7.09488551
LN,1,5,0,0.233,8406.87252591,-2.83158688
LN,1,5,0,0.233,9802.02902128,2.44143979
LN,1,5,0,0.233,11410.92098301,1.55635505
LN,1,5,0,0.233,13266.29230024,7.97159533
LN,1,5,0,0.233,15405.90316702,-5.04411648
LN,1,5,0,0.233,17873.29857123,1.2837375
LN,1,5,0,0.233,20718.69451459,2.6585685
LN,1,5,0,0.233,24000,0.19075741
LN,1,5,1,0.233,0,4.7701492
LN,1,5,1,0.233,107.23874129,-2.23197947
LN,1,5,1,0.233,230.90626491,5.50223266
LN,1,5,1,0.233,373.51943078,5.36978583
LN,1,5,1,0.233,537.98067721,-5.53178502
LN,1,5,1,0.233,727.63709087,4.81247425
LN,1,5,1,0.233,946.34852608,-1.59626877
LN,1,5,1,0.233,1198.56615988,-4.95836932
LN,1,5,1,0.233,1489.42308164,-9.79374498
LN,1,5,1,0.233,1824.83876082,-3.42652481
LN,1,5,1,0.233,2211.63951892,-4.29431362
LN,1,5,1,0.233,2657.69745762,2.99312288
LN,1,5,1,0.233,3172.09067045,4.34695651
LN,1,5,1,0.233,3765.28799853,4.76405802
LN,1,5,1,0.233,4449.36209061,-2.40423556
LN,1,5,1,0.233,5238.23510351,-1.039228
LN,1,5,1,0.233,6147.96204348,-3.64989777
LN,1,5,1,0.233,7197.05751481,2.95884601
LN,1,5,1,0.233,8406.87252591,-0.39238273
LN,1,5,1,0.233,9802.02902128,-2.44015595
LN,1,5,1,0.233,11410.92098301,-5.04246166
LN,1,5,1,0.233,13266.29230024,8.37572571
LN,1,5,1,0.233,15405.90316702,6.03877174
LN,1,5,1,0.233,17873.29857123,1.88158074
LN,1,5,1,0.233,20718.69451459,5.26955672
LN,1,5,1,0.233,24000,1.89091242
LN,1,6,0,0.284,0,-6.30095871
LN,1,6,0,0.284,107.23874129,-0.76439002
LN,1,6,0,0.284,230.90626491,-1.10712553
LN,1,6,0,0.284,373.51943078,-2.91275657
LN,1,6,0,0.284,537.98067721,-4.42421286
LN,1,6,0,0.284,727.63709087,6.37624201
LN,1,6,0,0.284,946.34852608,1.60930524
LN,1,6,0,0.284,1198.56615988,2.27294659
LN,1,6,0,0.284,1489.42308164,-5.34221398
LN,1,6,0,0.284,1824.83876082,-0.68412222
LN,1,6,0,0.284,2211.63951892,-3.46383857
LN,1,6,0,0.284,2657.69745762,-3.18556011
LN,1,6,0,0.284,3172.09067045,-6.46884784
LN,1,6,0,0.284,3765.28799853,10.0716094
LN,1,6,0,0.284,4449.36209061,3.45206439
LN,1,6,0,0.284,5238.23510351,-0.47415673
LN,1,6,0,0.284,6147.96204348,7.07200878
LN,1,6,0,0.284,7197.05751481,1.03429128
LN,1,6,0,0.284,8406.87252591,-2.89301345
LN,1,6,0,0.284,9802.02902128,4.35426333
LN,1,6,0,0.284,11410.92098301,2.01785401
LN,1,6,0,0.284,13266.29230024,-6.24340202
LN,1,6,0,0.284,15405.90316702,0.42052124
LN,1,6,0,0.284,17873.29857123,5.983218
LN,1,6,0,0.284,20718.69451459,-2.43109658
LN,1,6,0,0.284,24000,-1.85256838
LN,1,6,1,0.284,0,-0.72298524
LN,1,6,1,0.284,107.23874129,6.28404602
LN,1,6,1,0.284,230.90626491,-1.57904308
LN,1,6,1,0.284,373.51943078,1.74173963
LN,1,6,1,0.284,537.98067721,4.90735338
LN,1,6,1,0.284,727.63709087,-1.34723926
LN,1,6,1,0.284,946.34852608,-6.81769758
LN,1,6,1,0.284,1198.56615988,6.8049183
LN,1,6,1,0.284,1489.42308164,-1.96453505
LN,1,6,1,0.284,1824.83876082,-5.4597656
LN,1,6,1,0.284,2211.63951892,5.27305388
LN,1,6,1,0.284,2657.69745762,4.35290329
LN,1,6,1,0.284,3172.09067045,-9.40105039
LN,1,6,1,0.284,3765.28799853,-5.17128075
LN,1,6,1,0.284,4449.36209061,-4.41173556
LN,1,6,1,0.284,5238.23510351,4.99983636
LN,1,6,1,0.284,6147.96204348,-4.70672096
LN,1,6,1,0.284,7197.05751481,-1.32097189
LN,1,6,1,0.284,8406.87252591,-4.65950545
LN,1,6,1,0.284,9802.02902128,4.08351799
LN,1,6,1,0.284,11410.92098301,-4.98017428
LN,1,6,1,0.284,13266.29230024,0.19505968
LN,1,6,1,0.284,15405.90316702,7.02895641
LN,1,6,1,0.284,17873.29857123,3.7011354
LN,1,6,1,0.284,20718.69451459,-7.30529337
LN,1,6,1,0.284,24000,0.83566003
LN,1,7,1,0.225,0,8.15838207
LN,1,7,1,0.225,107.23874129,-9.08519274
LN,1,7,1,0.225,230.90626491,5.37294571
LN,1,7,1,0.225,373.51943078,3.84797181
LN,1,7,1,0.225,537.98067721,4.4612472
LN,1,7,1,0.225,727.63709087,3.44725126
LN,1,7,1,0.225,946.34852608,-2.46636496
LN,1,7,1,0.225,1198.56615988,-2.70417112
LN,1,7,1,0.225,1489.42308164,5.11449651
LN,1,7,1,0.225,1824.83876082,-4.41822177
LN,1,7,1,0.225,2211.63951892,3.18422819
LN,1,7,1,0.225,2657.69745762,10.25077491
LN,1,7,1,0.225,3172.09067045,-9.37959038
LN,1,7,1,0.225,3765.28799853,7.17908279
LN,1,7,1,0.225,4449.36209061,-0.72813588
LN,1,7,1,0.225,5238.23510351,-8.18628503
LN,1,7,1,0.225,6147.96204348,-2.28655705
LN,1,7,1,0.225,7197.05751481,10.83164428
LN,1,7,1,0.225,8406.87252591,-7.47489274
LN,1,7,1,0.225,9802.02902128,-4.14276283
LN,1,7,1,0.225,11410.92098301,-0.12946123
LN,1,7,1,0.225,13266.29230024,-3.42943552
LN,1,7,1,0.225,15405.90316702,-2.844136
LN,1,7,1,0.225,17873.29857123,1.06644155
LN,1,7,1,0.225,20718.69451459,2.23850622
LN,1,7,1,0.225,24000,8.15044223
LN,1,7,0,0.225,0,9.34470656
LN,1,7,0,0.225,107.23874129,6.10170571
LN,1,7,0,0.225,230.90626491,-3.76302294
LN,1,7,0,0.225,373.51943078,2.22716075
LN,1,7,0,0.225,537.98067721,-2.43293357
LN,1,7,0,0.225,727.63709087,-3.05408844
LN,1,7,0,0.225,946.34852608,8.27097048
LN,1,7,0,0.225,1198.56615988,6.56351127
LN,1,7,0,0.225,1489.42308164,-2.3573092
LN,1,7,0,0.225,1824.83876082,-5.8396233
LN,1,7,0,0.225,2211.63951892,4.14533979
LN,1,7,0,0.225,2657.69745762,-6.53457489
LN,1,7,0,0.225,3172.09067045,-0.04466151
LN,1,7,0,0.225,3765.28799853,-3.40698233
LN,1,7,0,0.225,4449.36209061,-0.15291941
LN,1,7,0,0.225,5238.23510351,5.67627017
LN,1,7,0,0.225,6147.96204348,-2.54511628
LN,1,7,0,0.225,7197.05751481,2.40074369
LN,1,7,0,0.225,8406.87252591,-0.85451086
LN,1,7,0,0.225,9802.02902128,-3.53359987
LN,1,7,0,0.225,11410.92098301,-4.67745344
LN,1,7,0,0.225,13266.29230024,-5.23538179
LN,1,7,0,0.225,15405.90316702,4.75424861
LN,1,7,0,0.225,17873.29857123,-11.14164099
LN,1,7,0,0.225,20718.69451459,-3.4780553
LN,1,7,0,0.225,24000,3.57436989
LN,1,8,0,0.219,0,0.71161341
LN,1,8,0,0.219,107.23874129,6.36714882
LN,1,8,0,0.219,230.90626491,9.2346076
LN,1,8,0,0.219,373.51943078,5.89754004
LN,1,8,0,0.219,537.98067721,9.71554025
LN,1,8,0,0.219,727.63709087,5.05081637
LN,1,8,0,0.219,946.34852608,-4.70129837
LN,1,8,0,0.219,1198.56615988,6.06074045
LN,1,8,0,0.219,1489.42308164,0.00979881
LN,1,8,0,0.219,1824.83876082,5.74924294
LN,1,8,0,0.219,2211.63951892,-5.30164755
LN,1,8,0,0.219,2657.69745762,-1.17779618
LN,1,8,0,0.219,3172.09067045,4.08074909
LN,1,8,0,0.219,3765.28799853,5.14228023
LN,1,8,0,0.219,4449.36209061,-9.25248434
LN,1,8,0,0.219,5238.23510351,6.90131474
LN,1,8,0,0.219,6147.96204348,-7.15933171
LN,1,8,0,0.219,7197.05751481,-5.21342084
LN,1,8,0,0.219,8406.87252591,7.40808162
LN,1,8,0,0.219,9802.02902128,-1.04091812
LN,1,8,0,0.219,11410.92098301,10.56778496
LN,1,8,0,0.219,13266.29230024,5.3885992
LN,1,8,0,0.219,15405.90316702,-0.31019764
LN,1,8,0,0.219,17873.29857123,0.12058433
LN,1,8,0,0.219,20718.69451459,-3.29672875
LN,1,8,0,0.219,24000,10.04446426
LN,1,8,1,0.219,0,2.42986279
LN,1,8,1,0.219,107.23874129,-5.19388421
LN,1,8,1,0.219,230.90626491,5.44989867
LN,1,8,1,0.219,373.51943078,-3.09523629
LN,1,8,1,0.219,537.98067721,0.27846774
LN,1,8,1,0.219,727.63709087,9.34715283
LN,1,8,1,0.219,946.34852608,-3.27048609
LN,1,8,1,0.219,1198.56615988,-1.33743445
LN,1,8,1,0.219,1489.42308164,1.0322956
LN,1,8,1,0.219,1824.83876082,0.08466466
LN,1,8,1,0.219,2211.63951892,-3.56824467
LN,1,8,1,0.219,2657.69745762,-2.17542061
LN,1,8,1,0.219,3172.09067045,1.03954645
LN,1,8,1,0.219,3765.28799853,6.85571757
LN,1,8,1,0.219,4449.36209061,3.11548478
LN,1,8,1,0.219,5238.23510351,6.09700204
LN,1,8,1,0.219,6147.96204348,1.23093924
LN,1,8,1,0.219,7197.05751481,1.72321834
LN,1,8,1,0.219,8406.87252591,-3.34959105
LN,1,8,1,0.219,9802.02902128,-2.82833171
LN,1,8,1,0.219,11410.92098301,7.16495017
LN,1,8,1,0.219,13266.29230024,6.07639524
LN,1,8,1,0.219,15405.90316702,-4.12627746
LN,1,8,1,0.219,17873.29857123,-1.21223829
LN,1,8,1,0.219,20718.69451459,-7.38999709
LN,1,8,1,0.219,24000,-6.82165943
LN,1,9,0,0.23,0,-7.47595137
LN,1,9,0,0.23,107.23874129,-7.94834782
LN,1,9,0,0.23,230.90626491,4.31031066
LN,1,9,0,0.23,373.51943078,-1.08937575
LN,1,9,0,0.23,537.98067721,3.53718906
LN,1,9,0,0.23,727.63709087,-5.69967428
LN,1,9,0,0.23,946.34852608,-1.42807423
LN,1,9,0,0.23,1198.56615988,-4.20746478
LN,1,9,0,0.23,1489.42308164,-7.28824227
LN,1,9,0,0.23,1824.83876082,9.35866427
LN,1,9,0,0.23,2211.63951892,-0.809562
LN,1,9,0,0.23,2657.69745762,-4.70174342
LN,1,9,0,0.23,3172.09067045,-8.47393858
LN,1,9,0,0.23,3765.28799853,0.33025922
LN,1,9,0,0.23,4449.36209061,-1.72504264
LN,1,9,0,0.23,5238.23510351,2.77414764
LN,1,9,0,0.23,6147.96204348,2.56393063
LN,1,9,0,0.23,7197.05751481,-1.99230531
LN,1,9,0,0.23,8406.87252591,4.18402772
LN,1,9,0,0.23,9802.02902128,-0.88053934
LN,1,9,0,0.23,11410.92098301,0.80364114
LN,1,9,0,0.23,13266.29230024,5.34701818
LN,1,9,0,0.23,15405.90316702,2.15563114
LN,1,9,0,0.23,17873.29857123,-2.1958159
LN,1,9,0,0.23,20718.69451459,-2.94637969
LN,1,9,0,0.23,24000,-3.26233608
LN,1,9,1,0.23,0,-10.44877867
LN,1,9,1,0.23,107.23874129,4.98896045
LN,1,9,1,0.23,230.90626491,-3.92076308
LN,1,9,1,0.23,373.51943078,6.08027763
LN,1,9,1,0.23,537.98067721,4.6411327
LN,1,9,1,0.23,727.63709087,4.14979549
LN,1,9,1,0.23,946.34852608,0.96756167
LN,1,9,1,0.23,1198.56615988,1.23888181
LN,1,9,1,0.23,1489.42308164,2.74170742
LN,1,9,1,0.23,1824.83876082,-4.69001542
LN,1,9,1,0.23,2211.63951892,3.46306079
LN,1,9,1,0.23,2657.69745762,2.19314256
LN,1,9,1,0.23,3172.09067045,2.68216768
LN,1,9,1,0.23,3765.28799853,-2.04641206
LN,1,9,1,0.23,4449.36209061,-7.15381446
LN,1,9,1,0.23,5238.23510351,3.76264281
LN,1,9,1,0.23,6147.96204348,4.19563354
LN,1,9,1,0.23,7197.05751481,-1.98467443
LN,1,9,1,0.23,8406.87252591,9.23769789
LN,1,9,1,0.23,9802.02902128,0.46054252
LN,1,9,1,0.23,11410.92098301,7.38710112
LN,1,9,1,0.23,13266.29230024,2.09293831
LN,1,9,1,0.23,15405.90316702,-10.17133009
LN,1,9,1,0.23,17873.29857123,-2.67476325
LN,1,9,1,0.23,20718.69451459,-3.85926101
LN,1,9,1,0.23,24000,5.56207176
LN,1,10,0,0.221,0,5.99890528
LN,1,10,0,0.221,107.23874129,1.37952616
LN,1,10,0,0.221,230.90626491,-6.6298779
LN,1,10,0,0.221,373.51943078,2.32143036
LN,1,10,0,0.221,537.98067721,6.96438761
LN,1,10,0,0.221,727.63709087,4.26348153
LN,1,10,0,0.221,946.34852608,2.52739555
LN,1,10,0,0.221,1198.56615988,8.19562572
LN,1,10,0,0.221,1489.42308164,-1.10709215
LN,1,10,0,0.221,1824.83876082,5.99714074
LN,1,10,0,0.221,2211.63951892,0.62371983
LN,1,10,0,0.221,2657.69745762,9.21085814
LN,1,10,0,0.221,3172.09067045,3.00396885
LN,1,10,0,0.221,3765.28799853,-3.45311399
LN,1,10,0,0.221,4449.36209061,6.09840607
LN,1,10,0,0.221,5238.23510351,4.60326299
LN,1,10,0,0.221,6147.96204348,1.43545506
LN,1,10,0,0.221,7197.05751481,-3.7413581
LN,1,10,0,0.221,8406.87252591,-7.85080294
LN,1,10,0,0.221,9802.02902128,3.27031957
LN,1,10,0,0.221,11410.92098301,-3.34207132
LN,1,10,0,0.221,13266.29230024,3.79040141
LN,1,10,0,0.221,15405.90316702,9.67107515
LN,1,10,0,0.221,17873.29857123,-10.20581616
LN,1,10,0,0.221,20718.69451459,4.81672966
LN,1,10,0,0.221,24000,3.9217138
LN,1,10,1,0.221,0,-0.64731851
LN,1,10,1,0.221,107.23874129,-6.22964119
LN,1,10,1,0.221,230.90626491,5.82321809
LN,1,10,1,0.221,373.51943078,6.18040057
LN,1,10,1,0.221,537.98067721,0.92941925
LN,1,10,1,0.221,727.63709087,1.99086116
LN,1,10,1,0.221,946.34852608,-2.28628787
LN,1,10,1,0.221,1198.56615988,3.80683584
LN,1,10,1,0.221,1489.42308164,-4.2875006
LN,1,10,1,0.221,1824.83876082,-0.65091039
LN,1,10,1,0.221,2211.63951892,-4.35287185
LN,1,10,1,0.221,2657.69745762,-2.51820395
LN,1,10,1,0.221,3172.09067045,-0.24325732
LN,1,10,1,0.221,3765.28799853,-0.45852763
LN,1,10,1,0.221,4449.36209061,1.78345567
LN,1,10,1,0.221,5238.23510351,5.77785413
LN,1,10,1,0.221,6147.96204348,-2.26475708
LN,1,10,1,0.221,7197.05751481,-3.0483163
LN,1,10,1,0.221,8406.87252591,-2.49853908
LN,1,10,1,0.221,9802.02902128,5.55418086
LN,1,10,1,0.221,11410.92098301,-7.02166579
LN,1,10,1,0.221,13266.29230024,-4.76095068
LN,1,10,1,0.221,15405.90316702,-4.89271374
LN,1,10,1,0.221,17873.29857123,2.81169964
LN,1,10,1,0.221,20718.69451459,-5.71458373
LN,1,10,1,0.221,24000,12.31166602
LN,1,11,0,0.28,0,-0.05002763
LN,1,11,0,0.28,107.23874129,-3.30123155
LN,1,11,0,0.28,230.90626491,1.24398854
LN,1,11,0,0.28,373.51943078,-3.21464402
LN,1,11,0,0.28,537.98067721,5.75466902
LN,1,11,0,0.28,727.63709087,0.17248202
LN,1,11,0,0.28,946.34852608,10.00210529
LN,1,11,0,0.28,1198.56615988,-5.60976052
LN,1,11,0,0.28,1489.42308164,-1.16518167
LN,1,11,0,0.28,1824.83876082,3.43954716
LN,1,11,0,0.28,2211.63951892,-3.26392428
LN,1,11,0,0.28,2657.69745762,-2.96483206
LN,1,11,0,0.28,3172.09067045,1.23586056
LN,1,11,0,0.28,3765.28799853,-1.46531033
LN,1,11,0,0.28,4449.36209061,1.12178336
LN,1,11,0,0.28,5238.23510351,-5.56351236
LN,1,11,0,0.28,6147.96204348,0.15626368
LN,1,11,0,0.28,7197.05751481,-3.71475918
LN,1,11,0,0.28,8406.87252591,7.27544046
LN,1,11,0,0.28,9802.02902128,-6.14208368
LN,1,11,0,0.28,11410.92098301,-3.26748268
LN,1,11,0,0.28,13266.29230024,-7.6114867
LN,1,11,0,0.28,15405.90316702,-1.0933363
LN,1,11,0,0.28,17873.29857123,5.54812019
LN,1,11,0,0.28,20718.69451459,-4.31741571
LN,1,11,0,0.28,24000,0.7673779
LN,1,11,1,0.28,0,3.41512696
LN,1,11,1,0.28,107.23874129,-2.75807732
LN,1,11,1,0.28,230.90626491,-4.84381003
LN,1,11,1,0.28,373.51943078,-5.7041834
LN,1,11,1,0.28,537.98067721,1.00146165
LN,1,11,1,0.28,727.63709087,2.4083593
LN,1,11,1,0.28,946.34852608,-3.73957113
LN,1,11,1,0.28,1198.56615988,2.48652906
LN,1,11,1,0.28,1489.42308164,-1.49373546
LN,1,11,1,0.28,1824.83876082,5.80522086
LN,1,11,1,0.28,2211.63951892,1.18499282
LN,1,11,1,0.28,2657.69745762,1.50551212
LN,1,11,1,0.28,3172.09067045,0.42340723
LN,1,11,1,0.28,3765.28799853,-0.02863009
LN,1,11,1,0.28,4449.36209061,-6.44541967
LN,1,11,1,0.28,5238.23510351,3.45013008
LN,1,11,1,0.28,6147.96204348,4.66847258
LN,1,11,1,0.28,7197.05751481,1.93948921
LN,1,11,1,0.28,8406.87252591,4.02091248
LN,1,11,1,0.28,9802.02902128,-1.68640716
LN,1,11,1,0.28,11410.92098301,-3.67036498
LN,1,11,1,0.28,13266.29230024,-2.84314831
LN,1,11,1,0.28,15405.90316702,-2.76642917
LN,1,11,1,0.28,17873.29857123,0.44070691
LN,1,11,1,0.28,20718.69451459,1.59315546
LN,1,11,1,0.28,24000,-0.89085371
LN,1,12,0,0.157,0,-7.32371518
LN,1,12,0,0.157,107.23874129,10.49606861
LN,1,12,0,0.157,230.90626491,0.52102155
LN,1,12,0,0.157,373.51943078,3.30582205
LN,1,12,0,0.157,537.98067721,3.21461596
LN,1,12,0,0.157,727.63709087,-0.61897314
LN,1,12,0,0.157,946.34852608,9.3211052
LN,1,12,0,0.157,1198.56615988,1.81520581
LN,1,12,0,0.157,1489.42308164,-1.77866761
LN,1,12,0,0.157,1824.83876082,8.53373105
LN,1,12,0,0.157,2211.63951892,-9.32484714
LN,1,12,0,0.157,2657.69745762,7.91834487
LN,1,12,0,0.157,3172.09067045,-3.40511951
LN,1,12,0,0.157,3765.28799853,0.18609234
LN,1,12,0,0.157,4449.36209061,1.59888044
LN,1,12,0,0.157,5238.23510351,-0.96301457
LN,1,12,0,0.157,6147.96204348,2.64723482
LN,1,12,0,0.157,7197.05751481,1.30773841
LN,1,12,0,0.157,8406.87252591,5.48567268
LN,1,12,0,0.157,9802.02902128,0.84834128
LN,1,12,0,0.157,11410.92098301,7.55871702
LN,1,12,0,0.157,13266.29230024,-1.62844343
LN,1,12,0,0.157,15405.90316702,-0.30732945
LN,1,12,0,0.157,17873.29857123,5.04099724
LN,1,12,0,0.157,20718.69451459,1.86014409
LN,1,12,0,0.157,24000,8.93827166
LN,1,12,1,0.157,0,6.58641575
LN,1,12,1,0.157,107.23874129,12.07484514
LN,1,12,1,0.157,230.90626491,0.73114004
LN,1,12,1,0.157,373.51943078,10.73514113
LN,1,12,1,0.157,537.98067721,-3.13351834
LN,1,12,1,0.157,727.63709087,6.62447692
LN,1,12,1,0.157,946.34852608,1.94857376
LN,1,12,1,0.157,1198.56615988,5.37080177
LN,1,12,1,0.157,1489.42308164,6.74668866
LN,1,12,1,0.157,1824.83876082,-0.12039528
LN,1,12,1,0.157,2211.63951892,-0.29685253
LN,1,12,1,0.157,2657.69745762,-0.43907013
LN,1,12,1,0.157,3172.09067045,-11.34456628
LN,1,12,1,0.157,3765.28799853,-1.98499034
LN,1,12,1,0.157,4449.36209061,-4.37126464
LN,1,12,1,0.157,5238.23510351,10.47177569
LN,1,12,1,0.157,6147.96204348,4.83173658
LN,1,12,1,0.157,7197.05751481,1.30014836
LN,1,12,1,0.157,8406.87252591,-2.43452482
LN,1,12,1,0.157,9802.02902128,5.43608561
LN,1,12,1,0.157,11410.92098301,9.83231206
LN,1,12,1,0.157,13266.29230024,4.35552674
LN,1,12,1,0.157,15405.90316702,-0.60276557
LN,1,12,1,0.157,17873.29857123,2.17875011
LN,1,12,1,0.157,20718.69451459,4.26901196
LN,1,12,1,0.157,24000,8.00734631
LN,1,13,1,0.218,0,0.77295693
LN,1,13,1,0.218,107.23874129,1.1177711
LN,1,13,1,0.218,230.90626491,3.47914046
LN,1,13,1,0.218,373.51943078,-0.90922569
LN,1,13,1,0.218,537.98067721,3.76795004
LN,1,13,1,0.218,727.63709087,4.54476189
LN,1,13,1,0.218,946.34852608,-1.09204324
LN,1,13,1,0.218,1198.56615988,10.09616496
LN,1,13,1,0.218,1489.42308164,9.02650455
LN,1,13,1,0.218,1824.83876082,7.98655129
LN,1,13,1,0.218,2211.63951892,-3.68969699
LN,1,13,1,0.218,2657.69745762,-3.34149669
LN,1,13,1,0.218,3172.09067045,3.43386442
LN,1,13,1,0.218,3765.28799853,0.83822807
LN,1,13,1,0.218,4449.36209061,-1.42955291
LN,1,13,1,0.218,5238.23510351,-5.71689604
LN,1,13,1,0.218,6147.96204348,-2.57458387
LN,1,13,1,0.218,7197.05751481,0.18044772
LN,1,13,1,0.218,8406.87252591,-2.62858825
LN,1,13,1,0.218,9802.02902128,0.45622703
LN,1,13,1,0.218,11410.92098301,2.94834917
LN,1,13,1,0.218,13266.29230024,1.50754489
LN,1,13,1,0.218,15405.90316702,-6.73245097
LN,1,13,1,0.218,17873.29857123,-8.66064958
LN,1,13,1,0.218,20718.69451459,-4.74362268
LN,1,13,1,0.218,24000,-2.58823708
LN,1,13,0,0.218,0,-4.26271272
LN,1,13,0,0.218,107.23874129,4.8005001
LN,1,13,0,0.218,230.90626491,-4.56490385
LN,1,13,0,0.218,373.51943078,4.66940744
LN,1,13,0,0.218,537.98067721,-2.86827367
LN,1,13,0,0.218,727.63709087,2.8295691
LN,1,13,0,0.218,946.34852608,-1.40736761
LN,1,13,0,0.218,1198.56615988,-4.86843939
LN,1,13,0,0.218,1489.42308164,6.01267764
LN,1,13,0,0.218,1824.83876082,-2.49071058
LN,1,13,0,0.218,2211.63951892,3.15844753
LN,1,13,0,0.218,2657.69745762,5.24810185
LN,1,13,0,0.218,3172.09067045,-3.49714846
LN,1,13,0,0.218,3765.28799853,0.38535623
LN,1,13,0,0.218,4449.36209061,-8.09369159
LN,1,13,0,0.218,5238.23510351,5.4286014
LN,1,13,0,0.218,6147.96204348,4.37352779
LN,1,13,0,0.218,7197.05751481,3.16549633
LN,1,13,0,0.218,8406.87252591,1.1376883
LN,1,13,0,0.218,9802.02902128,3.97255376
LN,1,13,0,0.218,11410.92098301,-0.62706588
LN,1,13,0,0.218,13266.29230024,-2.11782269
LN,1,13,0,0.218,15405.90316702,-1.66826744
LN,1,13,0,0.218,17873.29857123,5.32355097
LN,1,13,0,0.218,20718.69451459,4.044127
LN,1,13,0,0.218,24000,7.77742914
LN,1,14,0,0.227,0,-4.17198129
LN,1,14,0,0.227,107.23874129,1.40686094
LN,1,14,0,0.227,230.90626491,-1.82027832
LN,1,14,0,0.227,373.51943078,5.23056087
LN,1,14,0,0.227,537.98067721,1.60361103
LN,1,14,0,0.227,727.63709087,4.87991685
LN,1,14,0,0.227,946.34852608,2.55067137
LN,1,14,0,0.227,1198.56615988,-1.49671489
LN,1,14,0,0.227,1489.42308164,-6.15178622
LN,1,14,0,0.227,1824.83876082,-0.90523592
LN,1,14,0,0.227,2211.63951892,5.34431715
LN,1,14,0,0.227,2657.69745762,-1.03170488
LN,1,14,0,0.227,3172.09067045,-1.56518656
LN,1,14,0,0.227,3765.28799853,2.60108701
LN,1,14,0,0.227,4449.36209061,-2.20550064
LN,1,14,0,0.227,5238.23510351,-4.82432345
LN,1,14,0,0.227,6147.96204348,-0.35326253
LN,1,14,0,0.227,7197.05751481,1.73317567
LN,1,14,0,0.227,8406.87252591,3.23662887
LN,1,14,0,0.227,9802.02902128,-1.62706791
LN,1,14,0,0.227,11410.92098301,8.06513851
LN,1,14,0,0.227,13266.29230024,-10.50702293
LN,1,14,0,0.227,15405.90316702,1.71347074
LN,1,14,0,0.227,17873.29857123,-6.79641304
LN,1,14,0,0.227,20718.69451459,-3.48624466
LN,1,14,0,0.227,24000,-6.18720793
LN,1,14,1,0.227,0,-3.65000648
LN,1,14,1,0.227,107.23874129,5.49855808
LN,1,14,1,0.227,230.90626491,-0.52262512
LN,1,14,1,0.227,373.51943078,2.47108226
LN,1,14,1,0.227,537.98067721,2.29294651
LN,1,14,1,0.227,727.63709087,0.03539784
LN,1,14,1,0.227,946.34852608,-4.39555912
LN,1,14,1,0.227,1198.56615988,-3.95399618
LN,1,14,1,0.227,1489.42308164,-5.78666552
LN,1,14,1,0.227,1824.83876082,-0.64005426
LN,1,14,1,0.227,2211.63951892,-8.2837239
LN,1,14,1,0.227,2657.69745762,-1.49290718
LN,1,14,1,0.227,3172.09067045,5.72637745
LN,1,14,1,0.227,3765.28799853,0.53023732
LN,1,14,1,0.227,4449.36209061,-0.23266602
LN,1,14,1,0.227,5238.23510351,5.74526785
LN,1,14,1,0.227,6147.96204348,0.4009299
LN,1,14,1,0.227,7197.05751481,1.31160405
LN,1,14,1,0.227,8406.87252591,-3.28442378
LN,1,14,1,0.227,9802.02902128,4.05580201
LN,1,14,1,0.227,11410.92098301,9.16748629
LN,1,14,1,0.227,13266.29230024,-6.44381586
LN,1,14,1,0.227,15405.90316702,0.55647633
LN,1,14,1,0.227,17873.29857123,9.50744198
LN,1,14,1,0.227,20718.69451459,4.3904503
LN,1,14,1,0.227,24000,-1.22255207
LN,1,15,0,0.11,0,5.67699776
LN,1,15,0,0.11,107.23874129,-2.66458788
LN,1,15,0,0.11,230.90626491,0.84613852
LN,1,15,0,0.11,373.51943078,6.61495892
LN,1,15,0,0.11,537.98067721,5.14861819
LN,1,15,0,0.11,727.63709087,6.72276383
LN,1,15,0,0.11,946.34852608,1.59078159
LN,1,15,0,0.11,1198.56615988,-0.20018305
LN,1,15,0,0.11,1489.42308164,0.46798598
LN,1,15,0,0.11,1824.83876082,-9.47282947
LN,1,15,0,0.11,2211.63951892,9.4449566
LN,1,15,0,0.11,2657.69745762,-4.68584173
LN,1,15,0,0.11,3172.09067045,2.27849349
LN,1,15,0,0.11,3765.28799853,1.96809667
LN,1,15,0,0.11,4449.36209061,7.93638166
LN,1,15,0,0.11,5238.23510351,-7.921407
LN,1,15,0,0.11,6147.96204348,0.86612965
LN,1,15,0,0.11,7197.05751481,7.42153579
LN,1,15,0,0.11,8406.87252591,4.11863229
LN,1,15,0,0.11,9802.02902128,-2.58301768
LN,1,15,0,0.11,11410.92098301,1.68371184
LN,1,15,0,0.11,13266.29230024,1.80537521
LN,1,15,0,0.11,15405.90316702,2.14417677
LN,1,15,0,0.11,17873.29857123,2.53488576
LN,1,15,0,0.11,20718.69451459,10.62250922
LN,1,15,0,0.11,24000,5.72646417
LN,1,15,1,0.11,0,-4.2865005
LN,1,15,1,0.11,107.23874129,2.43701553
LN,1,15,1,0.11,230.90626491,7.6419665
LN,1,15,1,0.11,373.51943078,3.01590515
LN,1,15,1,0.11,537.98067721,-7.55505136
LN,1,15,1,0.11,727.63709087,3.38539092
LN,1,15,1,0.11,946.34852608,5.81065906
LN,1,15,1,0.11,1198.56615988,0.27306702
LN,1,15,1,0.11,1489.42308164,-2.42327532
LN,1,15,1,0.11,1824.83876082,4.26592828
LN,1,15,1,0.11,2211.63951892,-1.18462876
LN,1,15,1,0.11,2657.69745762,3.89332973
LN,1,15,1,0.11,3172.09067045,6.29991308
LN,1,15,1,0.11,3765.28799853,-5.55274007
LN,1,15,1,0.11,4449.36209061,-11.70191828
LN,1,15,1,0.11,5238.23510351,-8.02812107
LN,1,15,1,0.11,6147.96204348,-7.83911942
LN,1,15,1,0.11,7197.05751481,10.3439041
LN,1,15,1,0.11,8406.87252591,-3.03602418
LN,1,15,1,0.11,9802.02902128,-2.43136242
LN,1,15,1,0.11,11410.92098301,-9.37805174
LN,1,15,1,0.11,13266.29230024,2.01615745
LN,1,15,1,0.11,15405.90316702,2.02730328
LN,1,15,1,0.11,17873.29857123,6.98787584
LN,1,15,1,0.11,20718.69451459,-1.1274928
LN,1,15,1,0.11,24000,-4.66613338
LN,1,16,1,0.074,0,-0.70460503
LN,1,16,1,0.074,107.23874129,-3.55150915
LN,1,16,1,0.074,230.90626491,-3.17626946
LN,1,16,1,0.074,373.51943078,-0.32633473
LN,1,16,1,0.074,537.98067721,-3.36839003
LN,1,16,1,0.074,727.63709087,4.22106604
LN,1,16,1,0.074,946.34852608,3.22919014
LN,1,16,1,0.074,1198.56615988,-4.38739192
LN,1,16,1,0.074,1489.42308164,-2.77029997
LN,1,16,1,0.074,1824.83876082,7.35448918
LN,1,16,1,0.074,2211.63951892,-7.97396851
LN,1,16,1,0.074,2657.69745762,-0.5603151
LN,1,16,1,0.074,3172.09067045,6.27179655
LN,1,16,1,0.074,3765.28799853,-4.79792519
LN,1,16,1,0.074,4449.36209061,-10.28630092
LN,1,16,1,0.074,5238.23510351,1.89195405
LN,1,16,1,0.074,6147.96204348,0.48848007
LN,1,16,1,0.074,7197.05751481,1.97566267
LN,1,16,1,0.074,8406.87252591,-5.53051163
LN,1,16,1,0.074,9802.02902128,-1.12622081
LN,1,16,1,0.074,11410.92098301,-0.48511451
LN,1,16,1,0.074,13266.29230024,4.62887128
LN,1,16,1,0.074,15405.90316702,-4.7365965
LN,1,16,1,0.074,17873.29857123,-0.21338877
LN,1,16,1,0.074,20718.69451459,3.74387766
LN,1,16,1,0.074,24000,2.12251087
LN,1,16,0,0.074,0,4.38208123
LN,1,16,0,0.074,107.23874129,6.00677363
LN,1,16,0,0.074,230.90626491,-1.39374525
LN,1,16,0,0.074,373.51943078,-10.71389561
LN,1,16,0,0.074,537.98067721,-6.80138819
LN,1,16,0,0.074,727.63709087,5.96125633
LN,1,16,0,0.074,946.34852608,0.67228665
LN,1,16,0,0.074,1198.56615988,6.66828752
LN,1,16,0,0.074,1489.42308164,-3.10643132
LN,1,16,0,0.074,1824.83876082,-0.06600982
LN,1,16,0,0.074,2211.63951892,-2.65280633
LN,1,16,0,0.074,2657.69745762,-0.84723594
LN,1,16,0,0.074,3172.09067045,2.11380832
LN,1,16,0,0.074,3765.28799853,-3.05213112
LN,1,16,0,0.074,4449.36209061,6.72049837
LN,1,16,0,0.074,5238.23510351,3.93026619
LN,1,16,0,0.074,6147.96204348,3.07426423
LN,1,16,0,0.074,7197.05751481,-0.43526527
LN,1,16,0,0.074,8406.87252591,-1.37491227
LN,1,16,0,0.074,9802.02902128,-1.32966943
LN,1,16,0,0.074,11410.92098301,-0.10979313
LN,1,16,0,0.074,13266.29230024,-0.26831016
LN,1,16,0,0.074,15405.90316702,-4.64723711
LN,1,16,0,0.074,17873.29857123,3.25575214
LN,1,16,0,0.074,20718.69451459,-5.33652213
LN,1,16,0,0.074,24000,-9.58624288
LN,1,17,0,0.162,0,-0.05217286
LN,1,17,0,0.162,107.23874129,0.72316622
LN,1,17,0,0.162,230.90626491,11.41148939
LN,1,17,0,0.162,373.51943078,2.20435461
LN,1,17,0,0.162,537.98067721,4.72250419
LN,1,17,0,0.162,727.63709087,-2.46315288
LN,1,17,0,0.162,946.34852608,-6.38711369
LN,1,17,0,0.162,1198.56615988,5.55261084
LN,1,17,0,0.162,1489.42308164,2.77587828
LN,1,17,0,0.162,1824.83876082,-2.37982863
LN,1,17,0,0.162,2211.63951892,4.98930788
LN,1,17,0,0.162,2657.69745762,10.23032568
LN,1,17,0,0.162,3172.09067045,2.82523561
LN,1,17,0,0.162,3765.28799853,-0.70720494
LN,1,17,0,0.162,4449.36209061,-0.5926216
LN,1,17,0,0.162,5238.23510351,-3.70914824
LN,1,17,0,0.162,6147.96204348,2.60579232
LN,1,17,0,0.162,7197.05751481,-8.36697324
LN,1,17,0,0.162,8406.87252591,8.33906681
LN,1,17,0,0.162,9802.02902128,-8.02e-06
LN,1,17,0,0.162,11410.92098301,11.29753632
LN,1,17,0,0.162,13266.29230024,-4.04188406
LN,1,17,0,0.162,15405.90316702,4.61573035
LN,1,17,0,0.162,17873.29857123,1.62842838
LN,1,17,0,0.162,20718.69451459,5.78775215
LN,1,17,0,0.162,24000,2.30356518
LN,1,17,1,0.162,0,5.36682611
LN,1,17,1,0.162,107.23874129,2.59713005
LN,1,17,1,0.162,230.90626491,4.48335365
LN,1,17,1,0.162,373.51943078,3.48704636
LN,1,17,1,0.162,537.98067721,-4.07115131
LN,1,17,1,0.162,727.63709087,1.51607523
LN,1,17,1,0.162,946.34852608,3.93414983
LN,1,17,1,0.162,1198.56615988,-3.00737173
LN,1,17,1,0.162,1489.42308164,0.78804498
LN,1,17,1,0.162,1824.83876082,-8.76340809
LN,1,17,1,0.162,2211.63951892,-11.30389459
LN,1,17,1,0.162,2657.69745762,4.05744365
LN,1,17,1,0.162,3172.09067045,2.17550987
LN,1,17,1,0.162,3765.28799853,2.25410868
LN,1,17,1,0.162,4449.36209061,9.6577685
LN,1,17,1,0.162,5238.23510351,3.48505545
LN,1,17,1,0.162,6147.96204348,0.74929134
LN,1,17,1,0.162,7197.05751481,-0.93706155
LN,1,17,1,0.162,8406.87252591,0.02772382
LN,1,17,1,0.162,9802.02902128,6.2145827
LN,1,17,1,0.162,11410.92098301,-5.77896034
LN,1,17,1,0.162,13266.29230024,3.24276922
LN,1,17,1,0.162,15405.90316702,5.33391014
LN,1,17,1,0.162,17873.29857123,0.07355518
LN,1,17,1,0.162,20718.69451459,-6.57989146
LN,1,17,1,0.162,24000,0.87220579
LN,1,18,0,0.511,0,10.00465276
LN,1,18,0,0.511,107.23874129,-3.88467301
LN,1,18,0,0.511,230.90626491,-4.21525089
LN,1,18,0,0.511,373.51943078,0.85775699
LN,1,18,0,0.511,537.98067721,1.77179971
LN,1,18,0,0.511,727.63709087,-2.34733813
LN,1,18,0,0.511,946.34852608,-1.37998234
LN,1,18,0,0.511,1198.56615988,10.61789808
LN,1,18,0,0.511,1489.42308164,7.38185547
LN,1,18,0,0.511,1824.83876082,-3.47011664
LN,1,18,0,0.511,2211.63951892,0.35850001
LN,1,18,0,0.511,2657.69745762,10.2691628
LN,1,18,0,0.511,3172.09067045,5.40063986
LN,1,18,0,0.511,3765.28799853,1.34245907
LN,1,18,0,0.511,4449.36209061,4.04593893
LN,1,18,0,0.511,5238.23510351,3.0622208
LN,1,18,0,0.511,6147.96204348,4.57442065
LN,1,18,0,0.511,7197.05751481,2.59846381
LN,1,18,0,0.511,8406.87252591,-3.51263103
LN,1,18,0,0.511,9802.02902128,-2.73420664
LN,1,18,0,0.511,11410.92098301,0.62701036
LN,1,18,0,0.511,13266.29230024,2.08840825
LN,1,18,0,0.511,15405.90316702,-0.25653883
LN,1,18,0,0.511,17873.29857123,-0.2498248
LN,1,18,0,0.511,20718.69451459,-3.01144577
LN,1,18,0,0.511,24000,-4.20558918
LN,1,18,1,0.511,0,-4.41009028
LN,1,18,1,0.511,107.23874129,-0.44553958
LN,1,18,1,0.511,230.90626491,7.90228737
LN,1,18,1,0.511,373.51943078,3.07572213
LN,1,18,1,0.511,537.98067721,0.5713387
LN,1,18,1,0.511,727.63709087,2.49473882
LN,1,18,1,0.511,946.34852608,-6.04900102
LN,1,18,1,0.511,1198.56615988,-0.23179975
LN,1,18,1,0.511,1489.42308164,4.17513871
LN,1,18,1,0.511,1824.83876082,-1.15200993
LN,1,18,1,0.511,2211.63951892,2.22807133
LN,1,18,1,0.511,2657.69745762,8.42053906
LN,1,18,1,0.511,3172.09067045,6.21723917
LN,1,18,1,0.511,3765.28799853,-0.08200427
LN,1,18,1,0.511,4449.36209061,-1.83334472
LN,1,18,1,0.511,5238.23510351,-5.01937198
LN,1,18,1,0.511,6147.96204348,4.2634744
LN,1,18,1,0.511,7197.05751481,-3.85282556
LN,1,18,1,0.511,8406.87252591,7.09731256
LN,1,18,1,0.511,9802.02902128,4.51263434
LN,1,18,1,0.511,11410.92098301,1.06493063
LN,1,18,1,0.511,13266.29230024,4.82615079
LN,1,18,1,0.511,15405.90316702,3.10723123
LN,1,18,1,0.511,17873.29857123,8.3057546
LN,1,18,1,0.511,20718.69451459,5.66924158
LN,1,18,1,0.511,24000,2.35669864
LN,1,19,0,0.243,0,-9.00255923
LN,1,19,0,0.243,107.23874129,-7.9821266
LN,1,19,0,0.243,230.90626491,-3.43166882
LN,1,19,0,0.243,373.51943078,-2.18813492
LN,1,19,0,0.243,537.98067721,1.45722
LN,1,19,0,0.243,727.63709087,-4.85248879
LN,1,19,0,0.243,946.34852608,-12.35268812
LN,1,19,0,0.243,1198.56615988,1.46393373
LN,1,19,0,0.243,1489.42308164,-3.14732326
LN,1,19,0,0.243,1824.83876082,-5.96018957
LN,1,19,0,0.243,2211.63951892,-7.44451106
LN,1,19,0,0.243,2657.69745762,-5.88041848
LN,1,19,0,0.243,3172.09067045,9.45352476
LN,1,19,0,0.243,3765.28799853,-6.0202649
LN,1,19,0,0.243,4449.36209061,2.89469336
LN,1,19,0,0.243,5238.23510351,1.38204157
LN,1,19,0,0.243,6147.96204348,-5.71748378
LN,1,19,0,0.243,7197.05751481,-0.42760613
LN,1,19,0,0.243,8406.87252591,5.12727154
LN,1,19,0,0.243,9802.02902128,6.5091492
LN,1,19,0,0.243,11410.92098301,-4.1471834
LN,1,19,0,0.243,13266.29230024,-6.12291434
LN,1,19,0,0.243,15405.90316702,3.44530179
LN,1,19,0,0.243,17873.29857123,2.90952819
LN,1,19,0,0.243,20718.69451459,-1.65510696
LN,1,19,0,0.243,24000,-1.20829799
LN,1,19,1,0.243,0,-1.82156052
LN,1,19,1,0.243,107.23874129,-4.7589658
LN,1,19,1,0.243,230.90626491,4.08965022
LN,1,19,1,0.243,373.51943078,-1.94954341
LN,1,19,1,0.243,537.98067721,-4.69882411
LN,1,19,1,0.243,727.63709087,-5.21166039
LN,1,19,1,0.243,946.34852608,2.95481157
LN,1,19,1,0.243,1198.56615988,7.03319793
LN,1,19,1,0.243,1489.42308164,6.62352019
LN,1,19,1,0.243,1824.83876082,5.40728905
LN,1,19,1,0.243,2211.63951892,-0.1711236
LN,1,19,1,0.243,2657.69745762,-1.61472083
LN,1,19,1,0.243,3172.09067045,1.2830502
LN,1,19,1,0.243,3765.28799853,6.42675643
LN,1,19,1,0.243,4449.36209061,1.70248114
LN,1,19,1,0.243,5238.23510351,0.63911781
LN,1,19,1,0.243,6147.96204348,0.45760534
LN,1,19,1,0.243,7197.05751481,-3.05713306
LN,1,19,1,0.243,8406.87252591,-3.02420477
LN,1,19,1,0.243,9802.02902128,7.33389258
LN,1,19,1,0.243,11410.92098301,11.75939236
LN,1,19,1,0.243,13266.29230024,-5.1591437
LN,1,19,1,0.243,15405.90316702,-1.15936558
LN,1,19,1,0.243,17873.29857123,-8.11469557
LN,1,19,1,0.243,20718.69451459,-1.65757108
LN,1,19,1,0.243,24000,2.45524108
LN,1,20,1,0.251,0,6.25286002
LN,1,20,1,0.251,107.23874129,-2.92095132
LN,1,20,1,0.251,230.90626491,-2.72620816
LN,1,20,1,0.251,373.51943078,8.16960646
LN,1,20,1,0.251,537.98067721,2.19812666
LN,1,20,1,0.251,727.63709087,-1.11939349
LN,1,20,1,0.251,946.34852608,-3.31816975
LN,1,20,1,0.251,1198.56615988,9.49488648
LN,1,20,1,0.251,1489.42308164,-1.64371437
LN,1,20,1,0.251,1824.83876082,-1.09694476
LN,1,20,1,0.251,2211.63951892,-3.52030341
LN,1,20,1,0.251,2657.69745762,6.91147719
LN,1,20,1,0.251,3172.09067045,6.11929521
LN,1,20,1,0.251,3765.28799853,-0.84231236
LN,1,20,1,0.251,4449.36209061,-0.33586987
LN,1,20,1,0.251,5238.23510351,10.61294521
LN,1,20,1,0.251,6147.96204348,7.50537664
LN,1,20,1,0.251,7197.05751481,-0.78565479
LN,1,20,1,0.251,8406.87252591,-2.24489067
LN,1,20,1,0.251,9802.02902128,7.43870353
LN,1,20,1,0.251,11410.92098301,1.61899311
LN,1,20,1,0.251,13266.29230024,4.15444887
LN,1,20,1,0.251,15405.90316702,0.39927117
LN,1,20,1,0.251,17873.29857123,5.99943102
LN,1,20,1,0.251,20718.69451459,-0.0453931
LN,1,20,1,0.251,24000,4.29337695
LN,1,20,0,0.251,0,4.64087555
LN,1,20,0,0.251,107.23874129,6.779875
LN,1,20,0,0.251,230.90626491,-6.35322721
LN,1,20,0,0.251,373.51943078,6.31121029
LN,1,20,0,0.251,537.98067721,6.21974141
LN,1,20,0,0.251,727.63709087,-1.88088402
LN,1,20,0,0.251,946.34852608,4.59568703
LN,1,20,0,0.251,1198.56615988,4.19150482
LN,1,20,0,0.251,1489.42308164,2.83412833
LN,1,20,0,0.251,1824.83876082,1.50877482
LN,1,20,0,0.251,2211.63951892,-6.88395962
LN,1,20,0,0.251,2657.69745762,3.22855495
LN,1,20,0,0.251,3172.09067045,-4.32276796
LN,1,20,0,0.251,3765.28799853,2.07178006
LN,1,20,0,0.251,4449.36209061,-3.66544985
LN,1,20,0,0.251,5238.23510351,5.87055787
LN,1,20,0,0.251,6147.96204348,5.22450876
LN,1,20,0,0.251,7197.05751481,-3.87311739
LN,1,20,0,0.251,8406.87252591,4.27235524
LN,1,20,0,0.251,9802.02902128,-2.73871831
LN,1,20,0,0.251,11410.92098301,-4.0858921
LN,1,20,0,0.251,13266.29230024,1.79708525
LN,1,20,0,0.251,15405.90316702,3.29292723
LN,1,20,0,0.251,17873.29857123,-6.40274434
LN,1,20,0,0.251,20718.69451459,2.90191739
LN,1,20,0,0.251,24000,-7.02110295
LN,1,21,1,0.149,0,7.57735357
LN,1,21,1,0.149,107.23874129,2.8300779
LN,1,21,1,0.149,230.90626491,5.43151934
LN,1,21,1,0.149,373.51943078,-5.55747219
LN,1,21,1,0.149,537.98067721,-0.21526723
LN,1,21,1,0.149,727.63709087,-3.26908237
LN,1,21,1,0.149,946.34852608,2.7776781
LN,1,21,1,0.149,1198.56615988,-1.23120017
LN,1,21,1,0.149,1489.42308164,2.22338025
LN,1,21,1,0.149,1824.83876082,-3.47339062
LN,1,21,1,0.149,2211.63951892,-3.23227376
LN,1,21,1,0.149,2657.69745762,7.5784241
LN,1,21,1,0.149,3172.09067045,1.25168046
LN,1,21,1,0.149,3765.28799853,-5.32401304
LN,1,21,1,0.149,4449.36209061,2.1463281
LN,1,21,1,0.149,5238.23510351,-3.16952676
LN,1,21,1,0.149,6147.96204348,-2.56549956
LN,1,21,1,0.149,7197.05751481,-0.09405568
LN,1,21,1,0.149,8406.87252591,-2.27385703
LN,1,21,1,0.149,9802.02902128,5.72913834
LN,1,21,1,0.149,11410.92098301,3.13424789
LN,1,21,1,0.149,13266.29230024,-0.72048051
LN,1,21,1,0.149,15405.90316702,-4.20657742
LN,1,21,1,0.149,17873.29857123,-0.45559327
LN,1,21,1,0.149,20718.69451459,6.97262962
LN,1,21,1,0.149,24000,-3.17034294
LN,1,21,0,0.149,0,-2.92391579
LN,1,21,0,0.149,107.23874129,4.22241973
LN,1,21,0,0.149,230.90626491,9.31974616
LN,1,21,0,0.149,373.51943078,0.53920814
LN,1,21,0,0.149,537.98067721,0.64457414
LN,1,21,0,0.149,727.63709087,0.11586468
LN,1,21,0,0.149,946.34852608,5.81238355
LN,1,21,0,0.149,1198.56615988,-2.48540174
LN,1,21,0,0.149,1489.42308164,1.90283109
LN,1,21,0,0.149,1824.83876082,-4.06921908
LN,1,21,0,0.149,2211.63951892,-2.50845345
LN,1,21,0,0.149,2657.69745762,8.36526054
LN,1,21,0,0.149,3172.09067045,1.23896055
LN,1,21,0,0.149,3765.28799853,0.04503378
LN,1,21,0,0.149,4449.36209061,4.35506517
LN,1,21,0,0.149,5238.23510351,1.49469188
LN,1,21,0,0.149,6147.96204348,-0.96373403
LN,1,21,0,0.149,7197.05751481,-4.11694528
LN,1,21,0,0.149,8406.87252591,1.71677083
LN,1,21,0,0.149,9802.02902128,0.51263907
LN,1,21,0,0.149,11410.92098301,0.97207435
LN,1,21,0,0.149,13266.29230024,11.9671018
LN,1,21,0,0.149,15405.90316702,-3.34767676
LN,1,21,0,0.149,17873.29857123,-9.96022094
LN,1,21,0,0.149,20718.69451459,-5.45678896
LN,1,21,0,0.149,24000,-0.47387332
LN,1,22,1,0.144,0,2.3418725
LN,1,22,1,0.144,107.23874129,0.20355709
LN,1,22,1,0.144,230.90626491,-9.78348975
LN,1,22,1,0.144,373.51943078,-1.96257473
LN,1,22,1,0.144,537.98067721,2.9630782
LN,1,22,1,0.144,727.63709087,-2.97458581
LN,1,22,1,0.144,946.34852608,4.81996458
LN,1,22,1,0.144,1198.56615988,-6.46226905
LN,1,22,1,0.144,1489.42308164,-3.19564741
LN,1,22,1,0.144,1824.83876082,4.36952178
LN,1,22,1,0.144,2211.63951892,1.17416422
LN,1,22,1,0.144,2657.69745762,-6.82155226
LN,1,22,1,0.144,3172.09067045,-0.93109487
LN,1,22,1,0.144,3765.28799853,-0.77593883
LN,1,22,1,0.144,4449.36209061,-3.68351021
LN,1,22,1,0.144,5238.23510351,-6.76892748
LN,1,22,1,0.144,6147.96204348,-7.078659
LN,1,22,1,0.144,7197.05751481,2.94245202
LN,1,22,1,0.144,8406.87252591,-7.69023681
LN,1,22,1,0.144,9802.02902128,4.81159886
LN,1,22,1,0.144,11410.92098301,0.02225033
LN,1,22,1,0.144,13266.29230024,3.65622198
LN,1,22,1,0.144,15405.90316702,6.7312008
LN,1,22,1,0.144,17873.29857123,6.11941434
LN,1,22,1,0.144,20718.69451459,11.83174037
LN,1,22,1,0.144,24000,3.97504837
LN,1,22,0,0.144,0,3.26143044
LN,1,22,0,0.144,107.23874129,-5.05660418
LN,1,22,0,0.144,230.90626491,10.63531871
LN,1,22,0,0.144,373.51943078,-2.14248722
LN,1,22,0,0.144,537.98067721,0.82154517
LN,1,22,0,0.144,727.63709087,-1.04923565
LN,1,22,0,0.144,946.34852608,2.91484308
LN,1,22,0,0.144,1198.56615988,1.53080793
LN,1,22,0,0.144,1489.42308164,6.53823481
LN,1,22,0,0.144,1824.83876082,1.61911161
LN,1,22,0,0.144,2211.63951892,5.70971978
LN,1,22,0,0.144,2657.69745762,-3.28823576
LN,1,22,0,0.144,3172.09067045,-5.06859897
LN,1,22,0,0.144,3765.28799853,7.10127098
LN,1,22,0,0.144,4449.36209061,-4.4564091
LN,1,22,0,0.144,5238.23510351,-1.44203317
LN,1,22,0,0.144,6147.96204348,3.10364548
LN,1,22,0,0.144,7197.05751481,5.65653403
LN,1,22,0,0.144,8406.87252591,4.73791254
LN,1,22,0,0.144,9802.02902128,10.79999626
LN,1,22,0,0.144,11410.92098301,5.44708076
LN,1,22,0,0.144,13266.29230024,8.8101857
LN,1,22,0,0.144,15405.90316702,0.91825356
LN,1,22,0,0.144,17873.29857123,-2.94092388
LN,1,22,0,0.144,20718.69451459,-2.56781274
LN,1,22,0,0.144,24000,-0.90558296
LN,1,23,0,0.148,0,3.44778534
LN,1,23,0,0.148,107.23874129,9.62576253
LN,1,23,0,0.148,230.90626491,-0.24013551
LN,1,23,0,0.148,373.51943078,9.51495247
LN,1,23,0,0.148,537.98067721,6.1169552
LN,1,23,0,0.148,727.63709087,-6.86118112
LN,1,23,0,0.148,946.34852608,1.71792783
LN,1,23,0,0.148,1198.56615988,1.55423332
LN,1,23,0,0.148,1489.42308164,-0.35349368
LN,1,23,0,0.148,1824.83876082,-5.53190933
LN,1,23,0,0.148,2211.63951892,0.33505594
LN,1,23,0,0.148,2657.69745762,-6.98157796
LN,1,23,0,0.148,3172.09067045,-2.30105623
LN,1,23,0,0.148,3765.28799853,1.96681684
LN,1,23,0,0.148,4449.36209061,3.45304709
LN,1,23,0,0.148,5238.23510351,-2.06487879
LN,1,23,0,0.148,6147.96204348,0.02565086
LN,1,23,0,0.148,7197.05751481,-0.47338007
LN,1,23,0,0.148,8406.87252591,1.97427584
LN,1,23,0,0.148,9802.02902128,-1.88055525
LN,1,23,0,0.148,11410.92098301,8.46275776
LN,1,23,0,0.148,13266.29230024,-2.96969271
LN,1,23,0,0.148,15405.90316702,11.85149679
LN,1,23,0,0.148,17873.29857123,6.66592665
LN,1,23,0,0.148,20718.69451459,0.71758537
LN,1,23,0,0.148,24000,-0.04652736
LN,1,23,1,0.148,0,-4.35328251
LN,1,23,1,0.148,107.23874129,-2.28819179
LN,1,23,1,0.148,230.90626491,-9.51763184
LN,1,23,1,0.148,373.51943078,-2.10998589
LN,1,23,1,0.148,537.98067721,-3.3722242
LN,1,23,1,0.148,727.63709087,1.00804844
LN,1,23,1,0.148,946.34852608,-0.09045345
LN,1,23,1,0.148,1198.56615988,2.18880343
LN,1,23,1,0.148,1489.42308164,-8.00409484
LN,1,23,1,0.148,1824.83876082,0.09479062
LN,1,23,1,0.148,2211.63951892,-0.18219831
LN,1,23,1,0.148,2657.69745762,-0.39327701
LN,1,23,1,0.148,3172.09067045,10.35314647
LN,1,23,1,0.148,3765.28799853,-7.27233912
LN,1,23,1,0.148,4449.36209061,8.12234936
LN,1,23,1,0.148,5238.23510351,0.29713529
LN,1,23,1,0.148,6147.96204348,-10.52858565
LN,1,23,1,0.148,7197.05751481,4.53746332
LN,1,23,1,0.148,8406.87252591,-3.33340269
LN,1,23,1,0.148,9802.02902128,-0.67935054
LN,1,23,1,0.148,11410.92098301,1.00120277
LN,1,23,1,0.148,13266.29230024,10.71388943
LN,1,23,1,0.148,15405.90316702,1.22536513
LN,1,23,1,0.148,17873.29857123,-7.00194874
LN,1,23,1,0.148,20718.69451459,-0.0968732
LN,1,23,1,0.148,24000,-4.61238298
LN,1,24,1,0.153,0,-0.12362889
LN,1,24,1,0.153,107.23874129,-5.16608957
LN,1,24,1,0.153,230.90626491,0.91208559
LN,1,24,1,0.153,373.51943078,6.80983856
LN,1,24,1,0.153,537.98067721,3.38861473
LN,1,24,1,0.153,727.63709087,0.14753221
LN,1,24,1,0.153,946.34852608,3.92584779
LN,1,24,1,0.153,1198.56615988,8.92147052
LN,1,24,1,0.153,1489.42308164,-6.82955363
LN,1,24,1,0.153,1824.83876082,-0.253846
LN,1,24,1,0.153,2211.63951892,5.92522746
LN,1,24,1,0.153,2657.69745762,-2.84443923
LN,1,24,1,0.153,3172.09067045,5.00690324
LN,1,24,1,0.153,3765.28799853,0.07674356
LN,1,24,1,0.153,4449.36209061,-6.70395939
LN,1,24,1,0.153,5238.23510351,-1.18875902
LN,1,24,1,0.153,6147.96204348,-2.52574086
LN,1,24,1,0.153,7197.05751481,-8.43397688
LN,1,24,1,0.153,8406.87252591,1.23984801
LN,1,24,1,0.153,9802.02902128,3.60521978
LN,1,24,1,0.153,11410.92098301,-1.07882302
LN,1,24,1,0.153,13266.29230024,0.32379563
LN,1,24,1,0.153,15405.90316702,-5.74091704
LN,1,24,1,0.153,17873.29857123,3.48949843
LN,1,24,1,0.153,20718.69451459,1.24128188
LN,1,24,1,0.153,24000,-2.74731084
LN,1,24,0,0.153,0,3.91186044
LN,1,24,0,0.153,107.23874129,-0.1524314
LN,1,24,0,0.153,230.90626491,-3.30279138
LN,1,24,0,0.153,373.51943078,-6.30317193
LN,1,24,0,0.153,537.98067721,-7.23251286
LN,1,24,0,0.153,727.63709087,4.38268268
LN,1,24,0,0.153,946.34852608,10.44984173
LN,1,24,0,0.153,1198.56615988,-3.52814452
LN,1,24,0,0.153,1489.42308164,0.5805011
LN,1,24,0,0.153,1824.83876082,-2.33872835
LN,1,24,0,0.153,2211.63951892,0.20616046
LN,1,24,0,0.153,2657.69745762,3.35942662
LN,1,24,0,0.153,3172.09067045,-1.76910629
LN,1,24,0,0.153,3765.28799853,4.85806142
LN,1,24,0,0.153,4449.36209061,7.13262471
LN,1,24,0,0.153,5238.23510351,2.1995895
LN,1,24,0,0.153,6147.96204348,0.33286591
LN,1,24,0,0.153,7197.05751481,0.67388393
LN,1,24,0,0.153,8406.87252591,-4.50825892
LN,1,24,0,0.153,9802.02902128,1.14784336
LN,1,24,0,0.153,11410.92098301,2.03055393
LN,1,24,0,0.153,13266.29230024,2.21626473
LN,1,24,0,0.153,15405.90316702,-1.16680866
LN,1,24,0,0.153,17873.29857123,-10.25898164
LN,1,24,0,0.153,20718.69451459,-8.62843431
LN,1,24,0,0.153,24000,2.94772567
LN,1,25,1,0.231,0,-1.62905553
LN,1,25,1,0.231,107.23874129,-8.18070168
LN,1,25,1,0.231,230.90626491,-4.95855413
LN,1,25,1,0.231,373.51943078,-0.58044285
LN,1,25,1,0.231,537.98067721,-7.09727285
LN,1,25,1,0.231,727.63709087,-2.52259034
LN,1,25,1,0.231,946.34852608,-0.81475082
LN,1,25,1,0.231,1198.56615988,-5.15367142
LN,1,25,1,0.231,1489.42308164,-4.57719411
LN,1,25,1,0.231,1824.83876082,1.89945043
LN,1,25,1,0.231,2211.63951892,-0.1430745
LN,1,25,1,0.231,2657.69745762,-2.21872968
LN,1,25,1,0.231,3172.09067045,0.54793283
LN,1,25,1,0.231,3765.28799853,-5.83929036
LN,1,25,1,0.231,4449.36209061,-2.51707617
LN,1,25,1,0.231,5238.23510351,-0.53567263
LN,1,25,1,0.231,6147.96204348,-2.48181006
LN,1,25,1,0.231,7197.05751481,-4.56552104
LN,1,25,1,0.231,8406.87252591,-12.30141624
LN,1,25,1,0.231,9802.02902128,-0.0124053
LN,1,25,1,0.231,11410.92098301,6.51070764
LN,1,25,1,0.231,13266.29230024,4.41898731
LN,1,25,1,0.231,15405.90316702,-1.18194165
LN,1,25,1,0.231,17873.29857123,0.85253479
LN,1,25,1,0.231,20718.69451459,-0.39462194
LN,1,25,1,0.231,24000,4.20160768
LN,1,25,0,0.231,0,-2.99808145
LN,1,25,0,0.231,107.23874129,1.70812365
LN,1,25,0,0.231,230.90626491,0.01796799
LN,1,25,0,0.231,373.51943078,-8.71636044
LN,1,25,0,0.231,537.98067721,-9.6975926
LN,1,25,0,0.231,727.63709087,-10.66637212
LN,1,25,0,0.231,946.34852608,-1.88318243
LN,1,25,0,0.231,1198.56615988,0.14154452
LN,1,25,0,0.231,1489.42308164,-3.07510478
LN,1,25,0,0.231,1824.83876082,6.59280456
LN,1,25,0,0.231,2211.63951892,-3.06628631
LN,1,25,0,0.231,2657.69745762,-0.52830282
LN,1,25,0,0.231,3172.09067045,-3.98784457
LN,1,25,0,0.231,3765.28799853,0.31784543
LN,1,25,0,0.231,4449.36209061,4.85776818
LN,1,25,0,0.231,5238.23510351,2.59466265
LN,1,25,0,0.231,6147.96204348,-2.30712865
LN,1,25,0,0.231,7197.05751481,0.48163698
LN,1,25,0,0.231,8406.87252591,6.88785739
LN,1,25,0,0.231,9802.02902128,2.49397184
LN,1,25,0,0.231,11410.92098301,-6.99448001
LN,1,25,0,0.231,13266.29230024,-8.70715253
LN,1,25,0,0.231,15405.90316702,7.58210761
LN,1,25,0,0.231,17873.29857123,-1.5590714
LN,1,25,0,0.231,20718.69451459,-3.79287287
LN,1,25,0,0.231,24000,2.6551906
LN,1,26,0,0.358,0,-4.18721242
LN,1,26,0,0.358,107.23874129,1.15189783
LN,1,26,0,0.358,230.90626491,-0.62864785
LN,1,26,0,0.358,373.51943078,-0.78028954
LN,1,26,0,0.358,537.98067721,2.67303359
LN,1,26,0,0.358,727.63709087,1.90298004
LN,1,26,0,0.358,946.34852608,2.04380115
LN,1,26,0,0.358,1198.56615988,2.5338945
LN,1,26,0,0.358,1489.42308164,-6.24768432
LN,1,26,0,0.358,1824.83876082,5.75262779
LN,1,26,0,0.358,2211.63951892,-3.26532318
LN,1,26,0,0.358,2657.69745762,-1.73306588
LN,1,26,0,0.358,3172.09067045,-5.94561149
LN,1,26,0,0.358,3765.28799853,-0.13855508
LN,1,26,0,0.358,4449.36209061,0.7487293
LN,1,26,0,0.358,5238.23510351,8.6936544
LN,1,26,0,0.358,6147.96204348,-8.77988929
LN,1,26,0,0.358,7197.05751481,-5.98039082
LN,1,26,0,0.358,8406.87252591,-2.1189274
LN,1,26,0,0.358,9802.02902128,1.18683218
LN,1,26,0,0.358,11410.92098301,-2.75225478
LN,1,26,0,0.358,13266.29230024,-0.72166969
LN,1,26,0,0.358,15405.90316702,6.86408101
LN,1,26,0,0.358,17873.29857123,-5.75448922
LN,1,26,0,0.358,20718.69451459,0.15214278
LN,1,26,0,0.358,24000,2.28028463
LN,1,26,1,0.358,0,-1.16407367
LN,1,26,1,0.358,107.23874129,-3.47789346
LN,1,26,1,0.358,230.90626491,7.47545866
LN,1,26,1,0.358,373.51943078,-2.90584451
LN,1,26,1,0.358,537.98067721,1.32870557
LN,1,26,1,0.358,727.63709087,5.46485396
LN,1,26,1,0.358,946.34852608,0.39648067
LN,1,26,1,0.358,1198.56615988,-6.42667877
LN,1,26,1,0.358,1489.42308164,3.47704236
LN,1,26,1,0.358,1824.83876082,-8.41161203
LN,1,26,1,0.358,2211.63951892,4.70076641
LN,1,26,1,0.358,2657.69745762,-4.51446131
LN,1,26,1,0.358,3172.09067045,2.91409994
LN,1,26,1,0.358,3765.28799853,-4.32221924
LN,1,26,1,0.358,4449.36209061,5.63970274
LN,1,26,1,0.358,5238.23510351,-2.40254243
LN,1,26,1,0.358,6147.96204348,7.99226217
LN,1,26,1,0.358,7197.05751481,4.85879085
LN,1,26,1,0.358,8406.87252591,1.31731294
LN,1,26,1,0.358,9802.02902128,0.27412477
LN,1,26,1,0.358,11410.92098301,0.36010285
LN,1,26,1,0.358,13266.29230024,-2.97366638
LN,1,26,1,0.358,15405.90316702,8.04543857
LN,1,26,1,0.358,17873.29857123,3.89174345
LN,1,26,1,0.358,20718.69451459,-1.12111386
LN,1,26,1,0.358,24000,-1.21754729
LN,1,27,1,0.066,0,4.72560751
LN,1,27,1,0.066,107.23874129,-8.44181699
LN,1,27,1,0.066,230.90626491,-1.97851987
LN,1,27,1,0.066,373.51943078,-3.01210399
LN,1,27,1,0.066,537.98067721,1.71599867
LN,1,27,1,0.066,727.63709087,-1.66572045
LN,1,27,1,0.066,946.34852608,4.20558448
LN,1,27,1,0.066,1198.56615988,2.32204381
LN,1,27,1,0.066,1489.42308164,-4.18996358
LN,1,27,1,0.066,1824.83876082,-5.90904141
LN,1,27,1,0.066,2211.63951892,-8.56600717
LN,1,27,1,0.066,2657.69745762,10.3241392
LN,1,27,1,0.066,3172.09067045,5.17797339
LN,1,27,1,0.066,3765.28799853,8.53532687
LN,1,27,1,0.066,4449.36209061,-2.64607191
LN,1,27,1,0.066,5238.23510351,2.37280523
LN,1,27,1,0.066,6147.96204348,-7.64798257
LN,1,27,1,0.066,7197.05751481,2.44916241
LN,1,27,1,0.066,8406.87252591,2.31694243
LN,1,27,1,0.066,9802.02902128,-5.05749007
LN,1,27,1,0.066,11410.92098301,3.29982144
LN,1,27,1,0.066,13266.29230024,5.94836646
LN,1,27,1,0.066,15405.90316702,4.13888305
LN,1,27,1,0.066,17873.29857123,-2.04002445
LN,1,27,1,0.066,20718.69451459,3.2318974
LN,1,27,1,0.066,24000,-0.59819956
LN,1,27,0,0.066,0,7.29786881
LN,1,27,0,0.066,107.23874129,0.63990372
LN,1,27,0,0.066,230.90626491,0.84325832
LN,1,27,0,0.066,373.51943078,-3.3816932
LN,1,27,0,0.066,537.98067721,-0.11980693
LN,1,27,0,0.066,727.63709087,1.70243712
LN,1,27,0,0.066,946.34852608,1.04328332
LN,1,27,0,0.066,1198.56615988,0.06928095
LN,1,27,0,0.066,1489.42308164,-3.58269775
LN,1,27,0,0.066,1824.83876082,5.41163012
LN,1,27,0,0.066,2211.63951892,-9.46580267
LN,1,27,0,0.066,2657.69745762,-2.78859133
LN,1,27,0,0.066,3172.09067045,1.20363388
LN,1,27,0,0.066,3765.28799853,0.09073466
LN,1,27,0,0.066,4449.36209061,5.44769356
LN,1,27,0,0.066,5238.23510351,0.10707028
LN,1,27,0,0.066,6147.96204348,4.09374129
LN,1,27,0,0.066,7197.05751481,3.59210783
LN,1,27,0,0.066,8406.87252591,1.28577122
LN,1,27,0,0.066,9802.02902128,2.16929951
LN,1,27,0,0.066,11410.92098301,-5.51294146
LN,1,27,0,0.066,13266.29230024,-6.06261608
LN,1,27,0,0.066,15405.90316702,-4.62461385
LN,1,27,0,0.066,17873.29857123,9.530477
LN,1,27,0,0.066,20718.69451459,-5.8966901
LN,1,27,0,0.066,24000,3.72210806
LN,1,28,1,0.236,0,1.37148058
LN,1,28,1,0.236,107.23874129,10.88476579
LN,1,28,1,0.236,230.90626491,1.94842225
LN,1,28,1,0.236,373.51943078,-1.72683305
LN,1,28,1,0.236,537.98067721,0.18327045
LN,1,28,1,0.236,727.63709087,2.60005804
LN,1,28,1,0.236,946.34852608,0.70625581
LN,1,28,1,0.236,1198.56615988,-1.85617303
LN,1,28,1,0.236,1489.42308164,-4.31350433
LN,1,28,1,0.236,1824.83876082,2.01863757
LN,1,28,1,0.236,2211.63951892,-3.94122002
LN,1,28,1,0.236,2657.69745762,4.81802193
LN,1,28,1,0.236,3172.09067045,-0.49140768
LN,1,28,1,0.236,3765.28799853,-3.5370734
LN,1,28,1,0.236,4449.36209061,0.73491971
LN,1,28,1,0.236,5238.23510351,7.56970119
LN,1,28,1,0.236,6147.96204348,1.67050253
LN,1,28,1,0.236,7197.05751481,0.86794146
LN,1,28,1,0.236,8406.87252591,4.72081713
LN,1,28,1,0.236,9802.02902128,1.6261706
LN,1,28,1,0.236,11410.92098301,5.83861067
LN,1,28,1,0.236,13266.29230024,-2.2534517
LN,1,28,1,0.236,15405.90316702,-0.26968768
LN,1,28,1,0.236,17873.29857123,-4.23356788
LN,1,28,1,0.236,20718.69451459,0.54378671
LN,1,28,1,0.236,24000,-3.09221638
LN,1,28,0,0.236,0,-4.48147452
LN,1,28,0,0.236,107.23874129,1.6607936
LN,1,28,0,0.236,230.90626491,-1.27653699
LN,1,28,0,0.236,373.51943078,-4.80979326
LN,1,28,0,0.236,537.98067721,-0.93356386
LN,1,28,0,0.236,727.63709087,-0.56804536
LN,1,28,0,0.236,946.34852608,1.18882784
LN,1,28,0,0.236,1198.56615988,9.41182832
LN,1,28,0,0.236,1489.42308164,1.27019168
LN,1,28,0,0.236,1824.83876082,-5.44722881
LN,1,28,0,0.236,2211.63951892,7.03679827
LN,1,28,0,0.236,2657.69745762,0.92422365
LN,1,28,0,0.236,3172.09067045,-1.09632916
LN,1,28,0,0.236,3765.28799853,-1.41434235
LN,1,28,0,0.236,4449.36209061,8.80662374
LN,1,28,0,0.236,5238.23510351,7.16280258
LN,1,28,0,0.236,6147.96204348,0.15272428
LN,1,28,0,0.236,7197.05751481,-11.74846287
LN,1,28,0,0.236,8406.87252591,-0.5014349
LN,1,28,0,0.236,9802.02902128,-4.56870432
LN,1,28,0,0.236,11410.92098301,-1.38362647
LN,1,28,0,0.236,13266.29230024,2.84203424
LN,1,28,0,0.236,15405.90316702,-5.86160029
LN,1,28,0,0.236,17873.29857123,1.86951747
LN,1,28,0,0.236,20718.69451459,2.70407378
LN,1,28,0,0.236,24000,1.34133411
LN,1,29,1,0.259,0,3.28198496
LN,1,29,1,0.259,107.23874129,6.90347298
LN,1,29,1,0.259,230.90626491,0.97443735
LN,1,29,1,0.259,373.51943078,4.03279618
LN,1,29,1,0.259,537.98067721,6.86908912
LN,1,29,1,0.259,727.63709087,5.33690476
LN,1,29,1,0.259,946.34852608,-0.77649994
LN,1,29,1,0.259,1198.56615988,4.31454736
LN,1,29,1,0.259,1489.42308164,-1.74320584
LN,1,29,1,0.259,1824.83876082,-3.39570824
LN,1,29,1,0.259,2211.63951892,8.83084459
LN,1,29,1,0.259,2657.69745762,-3.35741676
LN,1,29,1,0.259,3172.09067045,2.38629094
LN,1,29,1,0.259,3765.28799853,0.0282308
LN,1,29,1,0.259,4449.36209061,0.51153111
LN,1,29,1,0.259,5238.23510351,-4.89079341
LN,1,29,1,0.259,6147.96204348,-1.3962834
LN,1,29,1,0.259,7197.05751481,-3.42752321
LN,1,29,1,0.259,8406.87252591,4.25895663
LN,1,29,1,0.259,9802.02902128,8.0793809
LN,1,29,1,0.259,11410.92098301,6.14019335
LN,1,29,1,0.259,13266.29230024,2.99481751
LN,1,29,1,0.259,15405.90316702,0.31885964
LN,1,29,1,0.259,17873.29857123,6.34261223
LN,1,29,1,0.259,20718.69451459,-1.92489204
LN,1,29,1,0.259,24000,9.34397006
LN,1,29,0,0.259,0,-5.16559361
LN,1,29,0,0.259,107.23874129,-4.50858513
LN,1,29,0,0.259,230.90626491,3.88024362
LN,1,29,0,0.259,373.51943078,9.18978458
LN,1,29,0,0.259,537.98067721,1.78238276
LN,1,29,0,0.259,727.63709087,0.6760286
LN,1,29,0,0.259,946.34852608,-6.00102193
LN,1,29,0,0.259,1198.56615988,-0.11919048
LN,1,29,0,0.259,1489.42308164,0.03108966
LN,1,29,0,0.259,1824.83876082,-5.19542839
LN,1,29,0,0.259,2211.63951892,2.38741341
LN,1,29,0,0.259,2657.69745762,-0.69842073
LN,1,29,0,0.259,3172.09067045,-7.9661464
LN,1,29,0,0.259,3765.28799853,-1.09105559
LN,1,29,0,0.259,4449.36209061,10.18373703
LN,1,29,0,0.259,5238.23510351,5.47261741
LN,1,29,0,0.259,6147.96204348,7.40195771
LN,1,29,0,0.259,7197.05751481,-7.17462108
LN,1,29,0,0.259,8406.87252591,2.20591835
LN,1,29,0,0.259,9802.02902128,1.05948071
LN,1,29,0,0.259,11410.92098301,-0.53402206
LN,1,29,0,0.259,13266.29230024,1.21976768
LN,1,29,0,0.259,15405.90316702,-0.19082663
LN,1,29,0,0.259,17873.29857123,-0.61217187
LN,1,29,0,0.259,20718.69451459,-1.81099736
LN,1,29,0,0.259,24000,4.06732714
LN,1,30,1,0.293,0,2.61635124
LN,1,30,1,0.293,107.23874129,-1.55356131
LN,1,30,1,0.293,230.90626491,-3.81062764
LN,1,30,1,0.293,373.51943078,0.13128467
LN,1,30,1,0.293,537.98067721,7.52491898
LN,1,30,1,0.293,727.63709087,-4.54902914
LN,1,30,1,0.293,946.34852608,-5.69144309
LN,1,30,1,0.293,1198.56615988,-6.54020765
LN,1,30,1,0.293,1489.42308164,5.46110157
LN,1,30,1,0.293,1824.83876082,-1.87205307
LN,1,30,1,0.293,2211.63951892,4.43298119
LN,1,30,1,0.293,2657.69745762,-4.66053692
LN,1,30,1,0.293,3172.09067045,0.17407482
LN,1,30,1,0.293,3765.28799853,3.8877727
LN,1,30,1,0.293,4449.36209061,3.57200091
LN,1,30,1,0.293,5238.23510351,-4.45254014
LN,1,30,1,0.293,6147.96204348,4.63937119
LN,1,30,1,0.293,7197.05751481,-1.7190678
LN,1,30,1,0.293,8406.87252591,-2.03607026
LN,1,30,1,0.293,9802.02902128,-7.50413928
LN,1,30,1,0.293,11410.92098301,2.82143192
LN,1,30,1,0.293,13266.29230024,3.83497951
LN,1,30,1,0.293,15405.90316702,-0.5408301
LN,1,30,1,0.293,17873.29857123,-8.81840422
LN,1,30,1,0.293,20718.69451459,-3.83608941
LN,1,30,1,0.293,24000,-1.07607461
LN,1,30,0,0.293,0,2.3232776
LN,1,30,0,0.293,107.23874129,3.03416961
LN,1,30,0,0.293,230.90626491,0.33026747
LN,1,30,0,0.293,373.51943078,5.49955944
LN,1,30,0,0.293,537.98067721,-1.0827081
LN,1,30,0,0.293,727.63709087,2.89006601
LN,1,30,0,0.293,946.34852608,-0.56702225
LN,1,30,0,0.293,1198.56615988,2.14877105
LN,1,30,0,0.293,1489.42308164,-1.46010151
LN,1,30,0,0.293,1824.83876082,-1.64719955
LN,1,30,0,0.293,2211.63951892,5.31244206
LN,1,30,0,0.293,2657.69745762,0.30053478
LN,1,30,0,0.293,3172.09067045,-3.43046548
LN,1,30,0,0.293,3765.28799853,-1.27037433
LN,1,30,0,0.293,4449.36209061,-0.28227725
LN,1,30,0,0.293,5238.23510351,-6.72071369
LN,1,30,0,0.293,6147.96204348,-0.37643516
LN,1,30,0,0.293,7197.05751481,1.90639675
LN,1,30,0,0.293,8406.87252591,-1.27175345
LN,1,30,0,0.293,9802.02902128,-7.30080724
LN,1,30,0,0.293,11410.92098301,1.02196137
LN,1,30,0,0.293,13266.29230024,3.0588197
LN,1,30,0,0.293,15405.90316702,5.58400897
LN,1,30,0,0.293,17873.29857123,-0.48374283
LN,1,30,0,0.293,20718.69451459,-2.51819164
LN,1,30,0,0.293,24000,0.02817427
LN,1,31,1,0.217,0,4.72402119
LN,1,31,1,0.217,107.23874129,-8.24234922
LN,1,31,1,0.217,230.90626491,-3.39514037
LN,1,31,1,0.217,373.51943078,-0.49534355
LN,1,31,1,0.217,537.98067721,-1.88444652
LN,1,31,1,0.217,727.63709087,0.65209597
LN,1,31,1,0.217,946.34852608,0.42708494
LN,1,31,1,0.217,1198.56615988,0.52375016
LN,1,31,1,0.217,1489.42308164,-9.08442789
LN,1,31,1,0.217,1824.83876082,1.54401474
LN,1,31,1,0.217,2211.63951892,2.233115
LN,1,31,1,0.217,2657.69745762,4.47727475
LN,1,31,1,0.217,3172.09067045,3.86806212
LN,1,31,1,0.217,3765.28799853,-6.43474771
LN,1,31,1,0.217,4449.36209061,3.58355625
LN,1,31,1,0.217,5238.23510351,4.49675701
LN,1,31,1,0.217,6147.96204348,1.30799229
LN,1,31,1,0.217,7197.05751481,3.53223753
LN,1,31,1,0.217,8406.87252591,0.42405786
LN,1,31,1,0.217,9802.02902128,-1.24475506
LN,1,31,1,0.217,11410.92098301,5.64340311
LN,1,31,1,0.217,13266.29230024,1.22436296
LN,1,31,1,0.217,15405.90316702,8.15639812
LN,1,31,1,0.217,17873.29857123,5.41336394
LN,1,31,1,0.217,20718.69451459,2.0884439
LN,1,31,1,0.217,24000,-1.50115532
LN,1,31,0,0.217,0,0.4734812
LN,1,31,0,0.217,107.23874129,2.80474079
LN,1,31,0,0.217,230.90626491,1.38222832
LN,1,31,0,0.217,373.51943078,0.94916049
LN,1,31,0,0.217,537.98067721,2.71279474
LN,1,31,0,0.217,727.63709087,5.09006109
LN,1,31,0,0.217,946.34852608,3.4068429
LN,1,31,0,0.217,1198.56615988,-5.57794504
LN,1,31,0,0.217,1489.42308164,-2.38835281
LN,1,31,0,0.217,1824.83876082,4.13904849
LN,1,31,0,0.217,2211.63951892,-2.0354829
LN,1,31,0,0.217,2657.69745762,1.53544543
LN,1,31,0,0.217,3172.09067045,3.87973407
LN,1,31,0,0.217,3765.28799853,-8.08844183
LN,1,31,0,0.217,4449.36209061,-1.40210845
LN,1,31,0,0.217,5238.23510351,-6.01465262
LN,1,31,0,0.217,6147.96204348,-3.58407403
LN,1,31,0,0.217,7197.05751481,-7.22157924
LN,1,31,0,0.217,8406.87252591,-7.53018873
LN,1,31,0,0.217,9802.02902128,8.10387525
LN,1,31,0,0.217,11410.92098301,-4.59310083
LN,1,31,0,0.217,13266.29230024,8.14417349
LN,1,31,0,0.217,15405.90316702,-4.29080387
LN,1,31,0,0.217,17873.29857123,1.43179914
LN,1,31,0,0.217,20718.69451459,-0.27339519
LN,1,31,0,0.217,24000,1.78334438
LN,1,32,0,0.243,0,4.33709628
LN,1,32,0,0.243,107.23874129,1.02852362
LN,1,32,0,0.243,230.90626491,2.26443748
LN,1,32,0,0.243,373.51943078,6.30551028
LN,1,32,0,0.243,537.98067721,5.60550803
LN,1,32,0,0.243,727.63709087,9.14832474
LN,1,32,0,0.243,946.34852608,0.39945144
LN,1,32,0,0.243,1198.56615988,3.68680473
LN,1,32,0,0.243,1489.42308164,5.37489193
LN,1,32,0,0.243,1824.83876082,4.76208951
LN,1,32,0,0.243,2211.63951892,4.2613156
LN,1,32,0,0.243,2657.69745762,5.00100265
LN,1,32,0,0.243,3172.09067045,-2.84866824
LN,1,32,0,0.243,3765.28799853,4.50189016
LN,1,32,0,0.243,4449.36209061,2.9422701
LN,1,32,0,0.243,5238.23510351,-3.84083004
LN,1,32,0,0.243,6147.96204348,0.62347413
LN,1,32,0,0.243,7197.05751481,3.71127399
LN,1,32,0,0.243,8406.87252591,-0.93645081
LN,1,32,0,0.243,9802.02902128,0.98825658
LN,1,32,0,0.243,11410.92098301,4.3543404
LN,1,32,0,0.243,13266.29230024,1.32057882
LN,1,32,0,0.243,15405.90316702,3.30829235
LN,1,32,0,0.243,17873.29857123,-4.00252968
LN,1,32,0,0.243,20718.69451459,2.01528156
LN,1,32,0,0.243,24000,-3.90529473
LN,1,32,1,0.243,0,0.48773004
LN,1,32,1,0.243,107.23874129,2.09262748
LN,1,32,1,0.243,230.90626491,3.36868802
LN,1,32,1,0.243,373.51943078,5.11566371
LN,1,32,1,0.243,537.98067721,-1.47402875
LN,1,32,1,0.243,727.63709087,2.46807234
LN,1,32,1,0.243,946.34852608,-0.55288317
LN,1,32,1,0.243,1198.56615988,-5.60747258
LN,1,32,1,0.243,1489.42308164,-0.98092497
LN,1,32,1,0.243,1824.83876082,-1.39613913
LN,1,32,1,0.243,2211.63951892,-1.0657961
LN,1,32,1,0.243,2657.69745762,-11.11063953
LN,1,32,1,0.243,3172.09067045,4.42711681
LN,1,32,1,0.243,3765.28799853,1.94624647
LN,1,32,1,0.243,4449.36209061,4.76002715
LN,1,32,1,0.243,5238.23510351,4.25844351
LN,1,32,1,0.243,6147.96204348,0.01076929
LN,1,32,1,0.243,7197.05751481,-3.26746408
LN,1,32,1,0.243,8406.87252591,-0.68338939
LN,1,32,1,0.243,9802.02902128,8.80813294
LN,1,32,1,0.243,11410.92098301,-9.7516036
LN,1,32,1,0.243,13266.29230024,-4.54135286
LN,1,32,1,0.243,15405.90316702,0.01288439
LN,1,32,1,0.243,17873.29857123,2.14750992
LN,1,32,1,0.243,20718.69451459,7.29970771
LN,1,32,1,0.243,24000,1.1533875
LN,1,33,1,0.219,0,-5.22038469
LN,1,33,1,0.219,107.23874129,4.22334566
LN,1,33,1,0.219,230.90626491,5.50671588
LN,1,33,1,0.219,373.51943078,2.19698613
LN,1,33,1,0.219,537.98067721,-3.83689006
LN,1,33,1,0.219,727.63709087,-6.25376637
LN,1,33,1,0.219,946.34852608,4.54255233
LN,1,33,1,0.219,1198.56615988,-5.1536651
LN,1,33,1,0.219,1489.42308164,5.10182515
LN,1,33,1,0.219,1824.83876082,1.46220858
LN,1,33,1,0.219,2211.63951892,-5.55891394
LN,1,33,1,0.219,2657.69745762,-2.78687011
LN,1,33,1,0.219,3172.09067045,3.66345262
LN,1,33,1,0.219,3765.28799853,3.96281741
LN,1,33,1,0.219,4449.36209061,3.31563572
LN,1,33,1,0.219,5238.23510351,-11.2318011
LN,1,33,1,0.219,6147.96204348,1.91100139
LN,1,33,1,0.219,7197.05751481,-0.29178865
LN,1,33,1,0.219,8406.87252591,-2.40128935
LN,1,33,1,0.219,9802.02902128,1.28096609
LN,1,33,1,0.219,11410.92098301,-8.47568156
LN,1,33,1,0.219,13266.29230024,6.45705263
LN,1,33,1,0.219,15405.90316702,-0.09272637
LN,1,33,1,0.219,17873.29857123,-1.295045
LN,1,33,1,0.219,20718.69451459,-0.32878789
LN,1,33,1,0.219,24000,-4.6392152
LN,1,33,0,0.219,0,-5.26771045
LN,1,33,0,0.219,107.23874129,4.9923129
LN,1,33,0,0.219,230.90626491,-7.51811473
LN,1,33,0,0.219,373.51943078,-3.41327018
LN,1,33,0,0.219,537.98067721,1.40187812
LN,1,33,0,0.219,727.63709087,-3.72541394
LN,1,33,0,0.219,946.34852608,-2.71652352
LN,1,33,0,0.219,1198.56615988,6.87642884
LN,1,33,0,0.219,1489.42308164,-1.84230747
LN,1,33,0,0.219,1824.83876082,4.41050651
LN,1,33,0,0.219,2211.63951892,2.99307391
LN,1,33,0,0.219,2657.69745762,-1.15633356
LN,1,33,0,0.219,3172.09067045,5.32057074
LN,1,33,0,0.219,3765.28799853,-7.82481269
LN,1,33,0,0.219,4449.36209061,1.92915564
LN,1,33,0,0.219,5238.23510351,-0.69375922
LN,1,33,0,0.219,6147.96204348,4.71608969
LN,1,33,0,0.219,7197.05751481,-2.4868112
LN,1,33,0,0.219,8406.87252591,0.00169101
LN,1,33,0,0.219,9802.02902128,2.42756045
LN,1,33,0,0.219,11410.92098301,-4.05291837
LN,1,33,0,0.219,13266.29230024,-5.82496953
LN,1,33,0,0.219,15405.90316702,5.04311348
LN,1,33,0,0.219,17873.29857123,4.13275103
LN,1,33,0,0.219,20718.69451459,-2.93105932
LN,1,33,0,0.219,24000,5.23099406
LN,1,34,0,0.229,0,-4.51253491
LN,1,34,0,0.229,107.23874129,3.18525715
LN,1,34,0,0.229,230.90626491,3.80893045
LN,1,34,0,0.229,373.51943078,0.78817235
LN,1,34,0,0.229,537.98067721,4.65094238
LN,1,34,0,0.229,727.63709087,2.40732841
LN,1,34,0,0.229,946.34852608,-2.5630202
LN,1,34,0,0.229,1198.56615988,-5.75640086
LN,1,34,0,0.229,1489.42308164,4.28701873
LN,1,34,0,0.229,1824.83876082,7.55343813
LN,1,34,0,0.229,2211.63951892,-8.23632369
LN,1,34,0,0.229,2657.69745762,5.25085201
LN,1,34,0,0.229,3172.09067045,-1.19865372
LN,1,34,0,0.229,3765.28799853,6.72552417
LN,1,34,0,0.229,4449.36209061,-0.61014534
LN,1,34,0,0.229,5238.23510351,5.9244648
LN,1,34,0,0.229,6147.96204348,-3.25012572
LN,1,34,0,0.229,7197.05751481,-10.09845875
LN,1,34,0,0.229,8406.87252591,-7.1832415
LN,1,34,0,0.229,9802.02902128,-9.57843476
LN,1,34,0,0.229,11410.92098301,3.94127675
LN,1,34,0,0.229,13266.29230024,-4.81032993
LN,1,34,0,0.229,15405.90316702,6.26164168
LN,1,34,0,0.229,17873.29857123,-5.16834802
LN,1,34,0,0.229,20718.69451459,-0.55449469
LN,1,34,0,0.229,24000,-3.8328617
LN,1,34,1,0.229,0,-7.93555648
LN,1,34,1,0.229,107.23874129,-6.45499185
LN,1,34,1,0.229,230.90626491,-1.72972573
LN,1,34,1,0.229,373.51943078,-3.35067168
LN,1,34,1,0.229,537.98067721,4.27502349
LN,1,34,1,0.229,727.63709087,4.70144022
LN,1,34,1,0.229,946.34852608,-1.37366402
LN,1,34,1,0.229,1198.56615988,7.97822361
LN,1,34,1,0.229,1489.42308164,-2.4848815
LN,1,34,1,0.229,1824.83876082,2.35461674
LN,1,34,1,0.229,2211.63951892,-4.0346946
LN,1,34,1,0.229,2657.69745762,3.69016546
LN,1,34,1,0.229,3172.09067045,7.70538802
LN,1,34,1,0.229,3765.28799853,-4.51203045
LN,1,34,1,0.229,4449.36209061,-5.59209758
LN,1,34,1,0.229,5238.23510351,-2.31495835
LN,1,34,1,0.229,6147.96204348,-7.61611064
LN,1,34,1,0.229,7197.05751481,4.16802281
LN,1,34,1,0.229,8406.87252591,-0.25027311
LN,1,34,1,0.229,9802.02902128,10.37831699
LN,1,34,1,0.229,11410.92098301,-3.09481618
LN,1,34,1,0.229,13266.29230024,3.76359865
LN,1,34,1,0.229,15405.90316702,7.16535603
LN,1,34,1,0.229,17873.29857123,-4.18610708
LN,1,34,1,0.229,20718.69451459,3.09508823
LN,1,34,1,0.229,24000,-5.43742302
LN,1,35,1,0.246,0,-6.83680251
LN,1,35,1,0.246,107.23874129,-4.7985705
LN,1,35,1,0.246,230.90626491,1.92181111
LN,1,35,1,0.246,373.51943078,-1.70560043
LN,1,35,1,0.246,537.98067721,5.00356047
LN,1,35,1,0.246,727.63709087,3.72262152
LN,1,35,1,0.246,946.34852608,-1.4846396
LN,1,35,1,0.246,1198.56615988,2.17940433
LN,1,35,1,0.246,1489.42308164,1.04764247
LN,1,35,1,0.246,1824.83876082,-0.31273306
LN,1,35,1,0.246,2211.63951892,1.38814614
LN,1,35,1,0.246,2657.69745762,0.289857
LN,1,35,1,0.246,3172.09067045,6.08443331
LN,1,35,1,0.246,3765.28799853,-6.49420212
LN,1,35,1,0.246,4449.36209061,5.04716436
LN,1,35,1,0.246,5238.23510351,-1.85186501
LN,1,35,1,0.246,6147.96204348,3.23819637
LN,1,35,1,0.246,7197.05751481,2.74772565
LN,1,35,1,0.246,8406.87252591,0.7072972
LN,1,35,1,0.246,9802.02902128,2.55031645
LN,1,35,1,0.246,11410.92098301,-3.15736039
LN,1,35,1,0.246,13266.29230024,1.85728933
LN,1,35,1,0.246,15405.90316702,4.06779376
LN,1,35,1,0.246,17873.29857123,-0.31780974
LN,1,35,1,0.246,20718.69451459,0.35334329
LN,1,35,1,0.246,24000,-1.28078755
LN,1,35,0,0.246,0,-1.39706102
LN,1,35,0,0.246,107.23874129,-0.37893569
LN,1,35,0,0.246,230.90626491,1.53686275
LN,1,35,0,0.246,373.51943078,5.05042184
LN,1,35,0,0.246,537.98067721,-2.44197247
LN,1,35,0,0.246,727.63709087,-0.50629331
LN,1,35,0,0.246,946.34852608,2.62134976
LN,1,35,0,0.246,1198.56615988,-9.84583864
LN,1,35,0,0.246,1489.42308164,3.61198487
LN,1,35,0,0.246,1824.83876082,6.28318028
LN,1,35,0,0.246,2211.63951892,7.02109944
LN,1,35,0,0.246,2657.69745762,0.07959567
LN,1,35,0,0.246,3172.09067045,-0.28561467
LN,1,35,0,0.246,3765.28799853,2.78500602
LN,1,35,0,0.246,4449.36209061,4.80234335
LN,1,35,0,0.246,5238.23510351,-3.9045823
LN,1,35,0,0.246,6147.96204348,-0.12499099
LN,1,35,0,0.246,7197.05751481,-0.94907072
LN,1,35,0,0.246,8406.87252591,-1.06697453
LN,1,35,0,0.246,9802.02902128,9.43153453
LN,1,35,0,0.246,11410.92098301,-2.92665665
LN,1,35,0,0.246,13266.29230024,-0.45374571
LN,1,35,0,0.246,15405.90316702,-5.19601652
LN,1,35,0,0.246,17873.29857123,-0.23935189
LN,1,35,0,0.246,20718.69451459,5.34364314
LN,1,35,0,0.246,24000,-3.94557893
LN,1,36,1,0.296,0,0.42433323
LN,1,36,1,0.296,107.23874129,-11.19130305
LN,1,36,1,0.296,230.90626491,-3.50378145
LN,1,36,1,0.296,373.51943078,-3.51161603
LN,1,36,1,0.296,537.98067721,-2.29892366
LN,1,36,1,0.296,727.63709087,7.15346483
LN,1,36,1,0.296,946.34852608,-4.33197586
LN,1,36,1,0.296,1198.56615988,2.15929923
LN,1,36,1,0.296,1489.42308164,5.43414924
LN,1,36,1,0.296,1824.83876082,3.13722942
LN,1,36,1,0.296,2211.63951892,-1.69360434
LN,1,36,1,0.296,2657.69745762,-4.95439907
LN,1,36,1,0.296,3172.09067045,3.83182609
LN,1,36,1,0.296,3765.28799853,-8.13704133
LN,1,36,1,0.296,4449.36209061,1.01957522
LN,1,36,1,0.296,5238.23510351,1.65017729
LN,1,36,1,0.296,6147.96204348,-1.90693513
LN,1,36,1,0.296,7197.05751481,10.50622345
LN,1,36,1,0.296,8406.87252591,-0.68050499
LN,1,36,1,0.296,9802.02902128,-4.28660248
LN,1,36,1,0.296,11410.92098301,6.65336136
LN,1,36,1,0.296,13266.29230024,3.57613868
LN,1,36,1,0.296,15405.90316702,5.1176946
LN,1,36,1,0.296,17873.29857123,0.99640378
LN,1,36,1,0.296,20718.69451459,4.31310269
LN,1,36,1,0.296,24000,4.13917269
LN,1,36,0,0.296,0,1.54920796
LN,1,36,0,0.296,107.23874129,3.73003872
LN,1,36,0,0.296,230.90626491,7.32179417
LN,1,36,0,0.296,373.51943078,-3.11321226
LN,1,36,0,0.296,537.98067721,10.11269165
LN,1,36,0,0.296,727.63709087,5.03399516
LN,1,36,0,0.296,946.34852608,6.46086426
LN,1,36,0,0.296,1198.56615988,-5.00883953
LN,1,36,0,0.296,1489.42308164,1.50689733
LN,1,36,0,0.296,1824.83876082,2.95989997
LN,1,36,0,0.296,2211.63951892,-7.26576289
LN,1,36,0,0.296,2657.69745762,-5.53578025
LN,1,36,0,0.296,3172.09067045,2.31462206
LN,1,36,0,0.296,3765.28799853,-11.68618268
LN,1,36,0,0.296,4449.36209061,-9.34145287
LN,1,36,0,0.296,5238.23510351,-2.91578991
LN,1,36,0,0.296,6147.96204348,1.35162672
LN,1,36,0,0.296,7197.05751481,3.53279396
LN,1,36,0,0.296,8406.87252591,2.77103751
LN,1,36,0,0.296,9802.02902128,2.87357958
LN,1,36,0,0.296,11410.92098301,2.86365931
LN,1,36,0,0.296,13266.29230024,-2.23530726
LN,1,36,0,0.296,15405.90316702,0.39339861
LN,1,36,0,0.296,17873.29857123,3.45181783
LN,1,36,0,0.296,20718.69451459,-1.14206557
LN,1,36,0,0.296,24000,-6.20106968
LN,1,37,1,0.229,0,-3.15036391
LN,1,37,1,0.229,107.23874129,-2.63192846
LN,1,37,1,0.229,230.90626491,-0.14152791
LN,1,37,1,0.229,373.51943078,-0.30199043
LN,1,37,1,0.229,537.98067721,-2.37367641
LN,1,37,1,0.229,727.63709087,5.21400453
LN,1,37,1,0.229,946.34852608,-5.26556291
LN,1,37,1,0.229,1198.56615988,-9.53210767
LN,1,37,1,0.229,1489.42308164,-5.1405242
LN,1,37,1,0.229,1824.83876082,-4.33651729
LN,1,37,1,0.229,2211.63951892,0.60621914
LN,1,37,1,0.229,2657.69745762,-5.32859499
LN,1,37,1,0.229,3172.09067045,-4.84674199
LN,1,37,1,0.229,3765.28799853,2.16142984
LN,1,37,1,0.229,4449.36209061,2.50225527
LN,1,37,1,0.229,5238.23510351,-5.37989121
LN,1,37,1,0.229,6147.96204348,3.37922123
LN,1,37,1,0.229,7197.05751481,0.80756101
LN,1,37,1,0.229,8406.87252591,-0.61728222
LN,1,37,1,0.229,9802.02902128,8.82795979
LN,1,37,1,0.229,11410.92098301,5.85012348
LN,1,37,1,0.229,13266.29230024,-6.71663949
LN,1,37,1,0.229,15405.90316702,7.21600017
LN,1,37,1,0.229,17873.29857123,-1.30064098
LN,1,37,1,0.229,20718.69451459,-4.6750698
LN,1,37,1,0.229,24000,-7.85728343
LN,1,37,0,0.229,0,0.00206267
LN,1,37,0,0.229,107.23874129,2.11544193
LN,1,37,0,0.229,230.90626491,-0.06256179
LN,1,37,0,0.229,373.51943078,1.61473843
LN,1,37,0,0.229,537.98067721,-2.2511405
LN,1,37,0,0.229,727.63709087,2.23382645
LN,1,37,0,0.229,946.34852608,5.38590665
LN,1,37,0,0.229,1198.56615988,-1.31889344
LN,1,37,0,0.229,1489.42308164,2.30214811
LN,1,37,0,0.229,1824.83876082,-5.9099443
LN,1,37,0,0.229,2211.63951892,8.45588371
LN,1,37,0,0.229,2657.69745762,11.6269076
LN,1,37,0,0.229,3172.09067045,-3.36800559
LN,1,37,0,0.229,3765.28799853,-3.1141421
LN,1,37,0,0.229,4449.36209061,-0.27128423
LN,1,37,0,0.229,5238.23510351,1.457892
LN,1,37,0,0.229,6147.96204348,1.05669417
LN,1,37,0,0.229,7197.05751481,4.94766504
LN,1,37,0,0.229,8406.87252591,-7.28593226
LN,1,37,0,0.229,9802.02902128,4.78158723
LN,1,37,0,0.229,11410.92098301,-0.13940346
LN,1,37,0,0.229,13266.29230024,5.71118407
LN,1,37,0,0.229,15405.90316702,-4.28252531
LN,1,37,0,0.229,17873.29857123,-5.0463814
LN,1,37,0,0.229,20718.69451459,3.37072469
LN,1,37,0,0.229,24000,-1.95186858
LN,1,38,0,0.23,0,0.9355974
LN,1,38,0,0.23,107.23874129,2.93256964
LN,1,38,0,0.23,230.90626491,-3.09156827
LN,1,38,0,0.23,373.51943078,-10.42223501
LN,1,38,0,0.23,537.98067721,1.59613473
LN,1,38,0,0.23,727.63709087,-6.21716932
LN,1,38,0,0.23,946.34852608,5.89492238
LN,1,38,0,0.23,1198.56615988,-0.50081653
LN,1,38,0,0.23,1489.42308164,-9.75118082
LN,1,38,0,0.23,1824.83876082,3.74506549
LN,1,38,0,0.23,2211.63951892,6.95087619
LN,1,38,0,0.23,2657.69745762,-3.05961187
LN,1,38,0,0.23,3172.09067045,-1.34243676
LN,1,38,0,0.23,3765.28799853,-2.41346196
LN,1,38,0,0.23,4449.36209061,-4.67297318
LN,1,38,0,0.23,5238.23510351,-8.2711255
LN,1,38,0,0.23,6147.96204348,1.31410511
LN,1,38,0,0.23,7197.05751481,1.16684053
LN,1,38,0,0.23,8406.87252591,2.32054561
LN,1,38,0,0.23,9802.02902128,6.24867109
LN,1,38,0,0.23,11410.92098301,1.43409745
LN,1,38,0,0.23,13266.29230024,-2.66528313
LN,1,38,0,0.23,15405.90316702,-0.11396035
LN,1,38,0,0.23,17873.29857123,0.05778135
LN,1,38,0,0.23,20718.69451459,-3.64853454
LN,1,38,0,0.23,24000,2.45376377
LN,1,38,1,0.23,0,-3.86173835
LN,1,38,1,0.23,107.23874129,3.62779192
LN,1,38,1,0.23,230.90626491,-0.78457652
LN,1,38,1,0.23,373.51943078,-4.53721587
LN,1,38,1,0.23,537.98067721,0.12419024
LN,1,38,1,0.23,727.63709087,-6.20484484
LN,1,38,1,0.23,946.34852608,3.94736003
LN,1,38,1,0.23,1198.56615988,-1.21820305
LN,1,38,1,0.23,1489.42308164,6.35973699
LN,1,38,1,0.23,1824.83876082,-2.03154219
LN,1,38,1,0.23,2211.63951892,-2.40357578
LN,1,38,1,0.23,2657.69745762,1.44562609
LN,1,38,1,0.23,3172.09067045,-6.65520219
LN,1,38,1,0.23,3765.28799853,-3.16776806
LN,1,38,1,0.23,4449.36209061,-3.01668213
LN,1,38,1,0.23,5238.23510351,-6.63519887
LN,1,38,1,0.23,6147.96204348,-1.17183268
LN,1,38,1,0.23,7197.05751481,0.03927879
LN,1,38,1,0.23,8406.87252591,-3.60215677
LN,1,38,1,0.23,9802.02902128,-3.22024207
LN,1,38,1,0.23,11410.92098301,-1.2882254
LN,1,38,1,0.23,13266.29230024,0.93578593
LN,1,38,1,0.23,15405.90316702,-3.3995136
LN,1,38,1,0.23,17873.29857123,-6.46029721
LN,1,38,1,0.23,20718.69451459,4.84629964
LN,1,38,1,0.23,24000,-0.35224478
LN,1,39,1,0.222,0,5.66250013
LN,1,39,1,0.222,107.23874129,1.5655077
LN,1,39,1,0.222,230.90626491,-2.52127682
LN,1,39,1,0.222,373.51943078,3.30485796
LN,1,39,1,0.222,537.98067721,0.32475932
LN,1,39,1,0.222,727.63709087,-0.69226467
LN,1,39,1,0.222,946.34852608,-0.51540853
LN,1,39,1,0.222,1198.56615988,4.32701739
LN,1,39,1,0.222,1489.42308164,-3.45291444
LN,1,39,1,0.222,1824.83876082,7.68152546
LN,1,39,1,0.222,2211.63951892,3.81075037
LN,1,39,1,0.222,2657.69745762,-2.81931074
LN,1,39,1,0.222,3172.09067045,3.44755638
LN,1,39,1,0.222,3765.28799853,-0.7543846
LN,1,39,1,0.222,4449.36209061,-3.45645963
LN,1,39,1,0.222,5238.23510351,9.53627363
LN,1,39,1,0.222,6147.96204348,-2.27325709
LN,1,39,1,0.222,7197.05751481,3.84411717
LN,1,39,1,0.222,8406.87252591,-0.91347461
LN,1,39,1,0.222,9802.02902128,-0.8882795
LN,1,39,1,0.222,11410.92098301,3.31643099
LN,1,39,1,0.222,13266.29230024,3.25440989
LN,1,39,1,0.222,15405.90316702,-3.95982651
LN,1,39,1,0.222,17873.29857123,-6.88561874
LN,1,39,1,0.222,20718.69451459,10.8327579
LN,1,39,1,0.222,24000,-7.25846458
LN,1,39,0,0.222,0,2.46184494
LN,1,39,0,0.222,107.23874129,0.75461101
LN,1,39,0,0.222,230.90626491,-2.91795781
LN,1,39,0,0.222,373.51943078,-0.75951055
LN,1,39,0,0.222,537.98067721,-0.25873324
LN,1,39,0,0.222,727.63709087,-0.92222056
LN,1,39,0,0.222,946.34852608,-2.2197774
LN,1,39,0,0.222,1198.56615988,6.6526987
LN,1,39,0,0.222,1489.42308164,-1.34820975
LN,1,39,0,0.222,1824.83876082,3.43617166
LN,1,39,0,0.222,2211.63951892,1.82843865
LN,1,39,0,0.222,2657.69745762,0.51929932
LN,1,39,0,0.222,3172.09067045,8.92009359
LN,1,39,0,0.222,3765.28799853,5.90572657
LN,1,39,0,0.222,4449.36209061,-3.41523649
LN,1,39,0,0.222,5238.23510351,0.11331484
LN,1,39,0,0.222,6147.96204348,-0.29688276
LN,1,39,0,0.222,7197.05751481,11.96206472
LN,1,39,0,0.222,8406.87252591,1.89620649
LN,1,39,0,0.222,9802.02902128,-1.88012269
LN,1,39,0,0.222,11410.92098301,0.12551752
LN,1,39,0,0.222,13266.29230024,7.02219584
LN,1,39,0,0.222,15405.90316702,1.01483937
LN,1,39,0,0.222,17873.29857123,5.02813107
LN,1,39,0,0.222,20718.69451459,8.18167138
LN,1,39,0,0.222,24000,-5.32694491
LN,1,40,0,0.256,0,-1.62569067
LN,1,40,0,0.256,107.23874129,1.6621998
LN,1,40,0,0.256,230.90626491,-7.31424833
LN,1,40,0,0.256,373.51943078,-0.78074601
LN,1,40,0,0.256,537.98067721,-0.06546494
LN,1,40,0,0.256,727.63709087,8.00671162
LN,1,40,0,0.256,946.34852608,-0.32891201
LN,1,40,0,0.256,1198.56615988,-2.48410864
LN,1,40,0,0.256,1489.42308164,7.34824892
LN,1,40,0,0.256,1824.83876082,3.98384926
LN,1,40,0,0.256,2211.63951892,-10.9461884
LN,1,40,0,0.256,2657.69745762,-1.30320483
LN,1,40,0,0.256,3172.09067045,4.1836649
LN,1,40,0,0.256,3765.28799853,0.73118076
LN,1,40,0,0.256,4449.36209061,-1.54257265
LN,1,40,0,0.256,5238.23510351,5.30126647
LN,1,40,0,0.256,6147.96204348,-0.59115056
LN,1,40,0,0.256,7197.05751481,4.12449964
LN,1,40,0,0.256,8406.87252591,2.39054108
LN,1,40,0,0.256,9802.02902128,5.9159408
LN,1,40,0,0.256,11410.92098301,-0.56990354
LN,1,40,0,0.256,13266.29230024,-11.96107464
LN,1,40,0,0.256,15405.90316702,-4.54004408
LN,1,40,0,0.256,17873.29857123,-3.57912668
LN,1,40,0,0.256,20718.69451459,-0.7710584
LN,1,40,0,0.256,24000,4.36009302
LN,1,40,1,0.256,0,4.80601655
LN,1,40,1,0.256,107.23874129,-4.24941571
LN,1,40,1,0.256,230.90626491,-3.26129364
LN,1,40,1,0.256,373.51943078,6.61071827
LN,1,40,1,0.256,537.98067721,-5.64893805
LN,1,40,1,0.256,727.63709087,-0.30995626
LN,1,40,1,0.256,946.34852608,-5.36013533
LN,1,40,1,0.256,1198.56615988,4.7954046
LN,1,40,1,0.256,1489.42308164,-2.72111415
LN,1,40,1,0.256,1824.83876082,0.68372214
LN,1,40,1,0.256,2211.63951892,8.51311087
LN,1,40,1,0.256,2657.69745762,6.46592008
LN,1,40,1,0.256,3172.09067045,-1.88643975
LN,1,40,1,0.256,3765.28799853,-2.05589206
LN,1,40,1,0.256,4449.36209061,11.2093064
LN,1,40,1,0.256,5238.23510351,8.16360542
LN,1,40,1,0.256,6147.96204348,-0.65816678
LN,1,40,1,0.256,7197.05751481,-5.16743637
LN,1,40,1,0.256,8406.87252591,1.60883512
LN,1,40,1,0.256,9802.02902128,8.49729079
LN,1,40,1,0.256,11410.92098301,4.71404339
LN,1,40,1,0.256,13266.29230024,-8.7570789
LN,1,40,1,0.256,15405.90316702,-4.83022199
LN,1,40,1,0.256,17873.29857123,0.80708442
LN,1,40,1,0.256,20718.69451459,3.06655534
LN,1,40,1,0.256,24000,-0.0869024
LN,1,41,0,0.218,0,5.46396727
LN,1,41,0,0.218,107.23874129,1.82598904
LN,1,41,0,0.218,230.90626491,-4.51656095
LN,1,41,0,0.218,373.51943078,0.55156505
LN,1,41,0,0.218,537.98067721,-4.45943246
LN,1,41,0,0.218,727.63709087,8.44326141
LN,1,41,0,0.218,946.34852608,-3.32056355
LN,1,41,0,0.218,1198.56615988,-2.38589409
LN,1,41,0,0.218,1489.42308164,4.57378658
LN,1,41,0,0.218,1824.83876082,3.88711049
LN,1,41,0,0.218,2211.63951892,-2.81953204
LN,1,41,0,0.218,2657.69745762,3.51733227
LN,1,41,0,0.218,3172.09067045,-5.76840934
LN,1,41,0,0.218,3765.28799853,-3.43957271
LN,1,41,0,0.218,4449.36209061,-6.55857591
LN,1,41,0,0.218,5238.23510351,-0.52788613
LN,1,41,0,0.218,6147.96204348,2.41718929
LN,1,41,0,0.218,7197.05751481,-3.24080226
LN,1,41,0,0.218,8406.87252591,2.10395584
LN,1,41,0,0.218,9802.02902128,-6.66814537
LN,1,41,0,0.218,11410.92098301,0.73165519
LN,1,41,0,0.218,13266.29230024,-1.56714461
LN,1,41,0,0.218,15405.90316702,3.90816427
LN,1,41,0,0.218,17873.29857123,0.5821542
LN,1,41,0,0.218,20718.69451459,3.83738162
LN,1,41,0,0.218,24000,-4.53838342
LN,1,41,1,0.218,0,-6.77362753
LN,1,41,1,0.218,107.23874129,4.14149266
LN,1,41,1,0.218,230.90626491,-0.821418
LN,1,41,1,0.218,373.51943078,-2.39693343
LN,1,41,1,0.218,537.98067721,4.22196049
LN,1,41,1,0.218,727.63709087,3.70882305
LN,1,41,1,0.218,946.34852608,0.999429
LN,1,41,1,0.218,1198.56615988,3.35252172
LN,1,41,1,0.218,1489.42308164,0.71176556
LN,1,41,1,0.218,1824.83876082,1.93579878
LN,1,41,1,0.218,2211.63951892,-0.43378837
LN,1,41,1,0.218,2657.69745762,1.20725176
LN,1,41,1,0.218,3172.09067045,-0.48163598
LN,1,41,1,0.218,3765.28799853,9.70377661
LN,1,41,1,0.218,4449.36209061,-3.72363778
LN,1,41,1,0.218,5238.23510351,3.70550678
LN,1,41,1,0.218,6147.96204348,-2.06755246
LN,1,41,1,0.218,7197.05751481,-0.21423221
LN,1,41,1,0.218,8406.87252591,2.98355464
LN,1,41,1,0.218,9802.02902128,-9.72564963
LN,1,41,1,0.218,11410.92098301,0.61641497
LN,1,41,1,0.218,13266.29230024,-1.18262664
LN,1,41,1,0.218,15405.90316702,-8.48877839
LN,1,41,1,0.218,17873.29857123,-2.28462425
LN,1,41,1,0.218,20718.69451459,0.17875751
LN,1,41,1,0.218,24000,4.48148756
LN,1,42,1,0.314,0,-3.46919681
LN,1,42,1,0.314,107.23874129,-5.36205163
LN,1,42,1,0.314,230.90626491,-1.68552285
LN,1,42,1,0.314,373.51943078,2.54507252
LN,1,42,1,0.314,537.98067721,7.33431701
LN,1,42,1,0.314,727.63709087,-0.34143731
LN,1,42,1,0.314,946.34852608,-4.93750155
LN,1,42,1,0.314,1198.56615988,4.79689086
LN,1,42,1,0.314,1489.42308164,-10.14150246
LN,1,42,1,0.314,1824.83876082,-5.67198617
LN,1,42,1,0.314,2211.63951892,5.37783464
LN,1,42,1,0.314,2657.69745762,0.65236565
LN,1,42,1,0.314,3172.09067045,6.11140253
LN,1,42,1,0.314,3765.28799853,3.23004284
LN,1,42,1,0.314,4449.36209061,0.53606512
LN,1,42,1,0.314,5238.23510351,4.12531019
LN,1,42,1,0.314,6147.96204348,-2.76091987
LN,1,42,1,0.314,7197.05751481,2.13970553
LN,1,42,1,0.314,8406.87252591,-3.00399174
LN,1,42,1,0.314,9802.02902128,1.98330147
LN,1,42,1,0.314,11410.92098301,2.60607836
LN,1,42,1,0.314,13266.29230024,-1.0222133
LN,1,42,1,0.314,15405.90316702,-6.72835849
LN,1,42,1,0.314,17873.29857123,-2.99655507
LN,1,42,1,0.314,20718.69451459,-2.0692976
LN,1,42,1,0.314,24000,0.858436
LN,1,42,0,0.314,0,-5.93634271
LN,1,42,0,0.314,107.23874129,-8.76681889
LN,1,42,0,0.314,230.90626491,-6.46897239
LN,1,42,0,0.314,373.51943078,10.6450528
LN,1,42,0,0.314,537.98067721,1.41780228
LN,1,42,0,0.314,727.63709087,3.06681268
LN,1,42,0,0.314,946.34852608,-1.14917951
LN,1,42,0,0.314,1198.56615988,-0.64404464
LN,1,42,0,0.314,1489.42308164,0.19210635
LN,1,42,0,0.314,1824.83876082,-5.23240612
LN,1,42,0,0.314,2211.63951892,2.63558303
LN,1,42,0,0.314,2657.69745762,3.49665977
LN,1,42,0,0.314,3172.09067045,0.89925207
LN,1,42,0,0.314,3765.28799853,1.89857557
LN,1,42,0,0.314,4449.36209061,3.83946806
LN,1,42,0,0.314,5238.23510351,-9.7416723
LN,1,42,0,0.314,6147.96204348,5.19018996
LN,1,42,0,0.314,7197.05751481,3.92647952
LN,1,42,0,0.314,8406.87252591,-5.19529512
LN,1,42,0,0.314,9802.02902128,8.09987892
LN,1,42,0,0.314,11410.92098301,0.04285075
LN,1,42,0,0.314,13266.29230024,-2.26301974
LN,1,42,0,0.314,15405.90316702,-4.62881845
LN,1,42,0,0.314,17873.29857123,-2.64642254
LN,1,42,0,0.314,20718.69451459,1.97578072
LN,1,42,0,0.314,24000,2.224887
LN,1,43,0,0.248,0,-3.17017351
LN,1,43,0,0.248,107.23874129,-10.04202273
LN,1,43,0,0.248,230.90626491,-0.41155391
LN,1,43,0,0.248,373.51943078,4.98356171
LN,1,43,0,0.248,537.98067721,-0.16721245
LN,1,43,0,0.248,727.63709087,-8.62708883
LN,1,43,0,0.248,946.34852608,8.87560664
LN,1,43,0,0.248,1198.56615988,9.55387735
LN,1,43,0,0.248,1489.42308164,0.09649372
LN,1,43,0,0.248,1824.83876082,-6.43860094
LN,1,43,0,0.248,2211.63951892,2.50333165
LN,1,43,0,0.248,2657.69745762,-3.30873717
LN,1,43,0,0.248,3172.09067045,0.73516326
LN,1,43,0,0.248,3765.28799853,-5.11661507
LN,1,43,0,0.248,4449.36209061,-5.38152407
LN,1,43,0,0.248,5238.23510351,-0.36892316
LN,1,43,0,0.248,6147.96204348,4.87555516
LN,1,43,0,0.248,7197.05751481,-2.02255821
LN,1,43,0,0.248,8406.87252591,-5.33366721
LN,1,43,0,0.248,9802.02902128,11.18643251
LN,1,43,0,0.248,11410.92098301,-11.19842831
LN,1,43,0,0.248,13266.29230024,3.15349149
LN,1,43,0,0.248,15405.90316702,-1.6968338
LN,1,43,0,0.248,17873.29857123,-1.63927166
LN,1,43,0,0.248,20718.69451459,0.80296752
LN,1,43,0,0.248,24000,0.2824523
LN,1,43,1,0.248,0,-3.60682017
LN,1,43,1,0.248,107.23874129,-7.43874845
LN,1,43,1,0.248,230.90626491,5.06065599
LN,1,43,1,0.248,373.51943078,-8.24130165
LN,1,43,1,0.248,537.98067721,-3.11534265
LN,1,43,1,0.248,727.63709087,5.35716048
LN,1,43,1,0.248,946.34852608,-1.89922809
LN,1,43,1,0.248,1198.56615988,-6.2672832
LN,1,43,1,0.248,1489.42308164,6.32003011
LN,1,43,1,0.248,1824.83876082,-1.90698488
LN,1,43,1,0.248,2211.63951892,6.0422426
LN,1,43,1,0.248,2657.69745762,-2.87447502
LN,1,43,1,0.248,3172.09067045,-2.00350462
LN,1,43,1,0.248,3765.28799853,-3.6202329
LN,1,43,1,0.248,4449.36209061,1.26690185
LN,1,43,1,0.248,5238.23510351,-5.58820092
LN,1,43,1,0.248,6147.96204348,5.19887577
LN,1,43,1,0.248,7197.05751481,2.45792061
LN,1,43,1,0.248,8406.87252591,-2.67507315
LN,1,43,1,0.248,9802.02902128,-3.44338639
LN,1,43,1,0.248,11410.92098301,5.74323544
LN,1,43,1,0.248,13266.29230024,-8.3824738
LN,1,43,1,0.248,15405.90316702,-0.49246402
LN,1,43,1,0.248,17873.29857123,4.33585955
LN,1,43,1,0.248,20718.69451459,4.82468042
LN,1,43,1,0.248,24000,-6.93544792
LN,1,44,1,0.216,0,1.89093166
LN,1,44,1,0.216,107.23874129,7.58518417
LN,1,44,1,0.216,230.90626491,3.52550597
LN,1,44,1,0.216,373.51943078,5.85697079
LN,1,44,1,0.216,537.98067721,0.20411413
LN,1,44,1,0.216,727.63709087,3.12845199
LN,1,44,1,0.216,946.34852608,-2.4800555
LN,1,44,1,0.216,1198.56615988,3.89185633
LN,1,44,1,0.216,1489.42308164,-1.20752227
LN,1,44,1,0.216,1824.83876082,-5.46019095
LN,1,44,1,0.216,2211.63951892,-1.64641426
LN,1,44,1,0.216,2657.69745762,5.64497819
LN,1,44,1,0.216,3172.09067045,0.79247739
LN,1,44,1,0.216,3765.28799853,-0.55941713
LN,1,44,1,0.216,4449.36209061,-4.67068895
LN,1,44,1,0.216,5238.23510351,6.25098746
LN,1,44,1,0.216,6147.96204348,-0.10485561
LN,1,44,1,0.216,7197.05751481,-7.26753601
LN,1,44,1,0.216,8406.87252591,10.39471851
LN,1,44,1,0.216,9802.02902128,3.85172049
LN,1,44,1,0.216,11410.92098301,-5.38811131
LN,1,44,1,0.216,13266.29230024,2.71855121
LN,1,44,1,0.216,15405.90316702,-2.05218156
LN,1,44,1,0.216,17873.29857123,6.72264195
LN,1,44,1,0.216,20718.69451459,-4.83243074
LN,1,44,1,0.216,24000,6.23335001
LN,1,44,0,0.216,0,4.04500628
LN,1,44,0,0.216,107.23874129,1.43125587
LN,1,44,0,0.216,230.90626491,-5.23511099
LN,1,44,0,0.216,373.51943078,1.52692891
LN,1,44,0,0.216,537.98067721,-0.13098534
LN,1,44,0,0.216,727.63709087,6.93505738
LN,1,44,0,0.216,946.34852608,11.38331593
LN,1,44,0,0.216,1198.56615988,-2.39204335
LN,1,44,0,0.216,1489.42308164,3.72315547
LN,1,44,0,0.216,1824.83876082,-0.35132552
LN,1,44,0,0.216,2211.63951892,1.05483119
LN,1,44,0,0.216,2657.69745762,1.73887107
LN,1,44,0,0.216,3172.09067045,1.31980251
LN,1,44,0,0.216,3765.28799853,1.98747158
LN,1,44,0,0.216,4449.36209061,3.35245358
LN,1,44,0,0.216,5238.23510351,-0.75399901
LN,1,44,0,0.216,6147.96204348,-5.6422356
LN,1,44,0,0.216,7197.05751481,5.60518155
LN,1,44,0,0.216,8406.87252591,9.20894758
LN,1,44,0,0.216,9802.02902128,1.78635985
LN,1,44,0,0.216,11410.92098301,3.18370021
LN,1,44,0,0.216,13266.29230024,5.75151042
LN,1,44,0,0.216,15405.90316702,-7.89940587
LN,1,44,0,0.216,17873.29857123,7.41603319
LN,1,44,0,0.216,20718.69451459,2.22839623
LN,1,44,0,0.216,24000,6.33660216
LN,1,45,0,0.162,0,0.56086393
LN,1,45,0,0.162,107.23874129,2.58554111
LN,1,45,0,0.162,230.90626491,-0.43050549
LN,1,45,0,0.162,373.51943078,-4.29408764
LN,1,45,0,0.162,537.98067721,-1.67065153
LN,1,45,0,0.162,727.63709087,-3.74443143
LN,1,45,0,0.162,946.34852608,6.79951545
LN,1,45,0,0.162,1198.56615988,-2.14887805
LN,1,45,0,0.162,1489.42308164,-2.10153386
LN,1,45,0,0.162,1824.83876082,4.86786744
LN,1,45,0,0.162,2211.63951892,-0.57431427
LN,1,45,0,0.162,2657.69745762,-7.27453543
LN,1,45,0,0.162,3172.09067045,-6.30066971
LN,1,45,0,0.162,3765.28799853,-2.81184414
LN,1,45,0,0.162,4449.36209061,7.4364433
LN,1,45,0,0.162,5238.23510351,-0.36574
LN,1,45,0,0.162,6147.96204348,-7.95638402
LN,1,45,0,0.162,7197.05751481,-7.77223621
LN,1,45,0,0.162,8406.87252591,-3.54810952
LN,1,45,0,0.162,9802.02902128,0.92487348
LN,1,45,0,0.162,11410.92098301,-3.52607248
LN,1,45,0,0.162,13266.29230024,-5.30121688
LN,1,45,0,0.162,15405.90316702,-2.0108775
LN,1,45,0,0.162,17873.29857123,3.52532826
LN,1,45,0,0.162,20718.69451459,-3.78309659
LN,1,45,0,0.162,24000,-2.97258045
LN,1,45,1,0.162,0,-1.71335222
LN,1,45,1,0.162,107.23874129,6.02047462
LN,1,45,1,0.162,230.90626491,-2.3650466
LN,1,45,1,0.162,373.51943078,-1.96337605
LN,1,45,1,0.162,537.98067721,-0.47910238
LN,1,45,1,0.162,727.63709087,-3.74113335
LN,1,45,1,0.162,946.34852608,6.08695942
LN,1,45,1,0.162,1198.56615988,-4.13430185
LN,1,45,1,0.162,1489.42308164,1.6542097
LN,1,45,1,0.162,1824.83876082,-2.36855217
LN,1,45,1,0.162,2211.63951892,3.07990992
LN,1,45,1,0.162,2657.69745762,4.3723932
LN,1,45,1,0.162,3172.09067045,-1.39095781
LN,1,45,1,0.162,3765.28799853,-7.58512481
LN,1,45,1,0.162,4449.36209061,-6.1859865
LN,1,45,1,0.162,5238.23510351,-2.4190393
LN,1,45,1,0.162,6147.96204348,-5.94189951
LN,1,45,1,0.162,7197.05751481,1.93966887
LN,1,45,1,0.162,8406.87252591,-4.24946177
LN,1,45,1,0.162,9802.02902128,-6.60244906
LN,1,45,1,0.162,11410.92098301,-1.94819463
LN,1,45,1,0.162,13266.29230024,6.02291109
LN,1,45,1,0.162,15405.90316702,-10.1458044
LN,1,45,1,0.162,17873.29857123,-0.72189397
LN,1,45,1,0.162,20718.69451459,-9.07385224
LN,1,45,1,0.162,24000,-6.28882401
LN,1,46,0,0.223,0,7.12225487
LN,1,46,0,0.223,107.23874129,-3.84541653
LN,1,46,0,0.223,230.90626491,5.40508598
LN,1,46,0,0.223,373.51943078,-6.76087827
LN,1,46,0,0.223,537.98067721,4.32980727
LN,1,46,0,0.223,727.63709087,6.70931585
LN,1,46,0,0.223,946.34852608,-5.63271554
LN,1,46,0,0.223,1198.56615988,-6.89830007
LN,1,46,0,0.223,1489.42308164,2.90467975
LN,1,46,0,0.223,1824.83876082,-0.73290937
LN,1,46,0,0.223,2211.63951892,-4.34086226
LN,1,46,0,0.223,2657.69745762,-3.69896424
LN,1,46,0,0.223,3172.09067045,0.95663722
LN,1,46,0,0.223,3765.28799853,6.62028602
LN,1,46,0,0.223,4449.36209061,-4.65129231
LN,1,46,0,0.223,5238.23510351,6.016382
LN,1,46,0,0.223,6147.96204348,3.86003161
LN,1,46,0,0.223,7197.05751481,-0.2284539
LN,1,46,0,0.223,8406.87252591,-1.01501957
LN,1,46,0,0.223,9802.02902128,7.30844549
LN,1,46,0,0.223,11410.92098301,3.50492608
LN,1,46,0,0.223,13266.29230024,10.9454503
LN,1,46,0,0.223,15405.90316702,5.48401176
LN,1,46,0,0.223,17873.29857123,-2.34425322
LN,1,46,0,0.223,20718.69451459,1.40143736
LN,1,46,0,0.223,24000,-2.25116994
LN,1,46,1,0.223,0,3.34488579
LN,1,46,1,0.223,107.23874129,0.41893448
LN,1,46,1,0.223,230.90626491,10.93186643
LN,1,46,1,0.223,373.51943078,-4.05293714
LN,1,46,1,0.223,537.98067721,0.0423179
LN,1,46,1,0.223,727.63709087,-3.51787607
LN,1,46,1,0.223,946.34852608,8.54378132
LN,1,46,1,0.223,1198.56615988,-2.52196573
LN,1,46,1,0.223,1489.42308164,5.85911124
LN,1,46,1,0.223,1824.83876082,-1.68669508
LN,1,46,1,0.223,2211.63951892,1.03618702
LN,1,46,1,0.223,2657.69745762,4.74230143
LN,1,46,1,0.223,3172.09067045,3.26928575
LN,1,46,1,0.223,3765.28799853,-2.51125374
LN,1,46,1,0.223,4449.36209061,4.78405649
LN,1,46,1,0.223,5238.23510351,-4.12660306
LN,1,46,1,0.223,6147.96204348,-6.09996184
LN,1,46,1,0.223,7197.05751481,5.21470682
LN,1,46,1,0.223,8406.87252591,-0.00732544
LN,1,46,1,0.223,9802.02902128,-4.14193031
LN,1,46,1,0.223,11410.92098301,0.89427026
LN,1,46,1,0.223,13266.29230024,3.92437778
LN,1,46,1,0.223,15405.90316702,4.31999912
LN,1,46,1,0.223,17873.29857123,-5.9534256
LN,1,46,1,0.223,20718.69451459,0.05883956
LN,1,46,1,0.223,24000,5.58384686
LN,1,47,0,0.095,0,-0.04333416
LN,1,47,0,0.095,107.23874129,-4.50044351
LN,1,47,0,0.095,230.90626491,-3.73453684
LN,1,47,0,0.095,373.51943078,-2.18774331
LN,1,47,0,0.095,537.98067721,-1.90110646
LN,1,47,0,0.095,727.63709087,5.2458747
LN,1,47,0,0.095,946.34852608,5.45731075
LN,1,47,0,0.095,1198.56615988,-1.26228309
LN,1,47,0,0.095,1489.42308164,1.85367661
LN,1,47,0,0.095,1824.83876082,-9.13843416
LN,1,47,0,0.095,2211.63951892,2.15845685
LN,1,47,0,0.095,2657.69745762,-0.65179606
LN,1,47,0,0.095,3172.09067045,1.30745519
LN,1,47,0,0.095,3765.28799853,-2.82121764
LN,1,47,0,0.095,4449.36209061,-1.07606702
LN,1,47,0,0.095,5238.23510351,0.0416721
LN,1,47,0,0.095,6147.96204348,1.90766705
LN,1,47,0,0.095,7197.05751481,8.97947969
LN,1,47,0,0.095,8406.87252591,1.66457118
LN,1,47,0,0.095,9802.02902128,3.33107431
LN,1,47,0,0.095,11410.92098301,-3.57926878
LN,1,47,0,0.095,13266.29230024,-4.32021774
LN,1,47,0,0.095,15405.90316702,3.97179246
LN,1,47,0,0.095,17873.29857123,-1.01955462
LN,1,47,0,0.095,20718.69451459,-1.81794241
LN,1,47,0,0.095,24000,-1.34392781
LN,1,47,1,0.095,0,4.75707474
LN,1,47,1,0.095,107.23874129,-5.52366099
LN,1,47,1,0.095,230.90626491,-5.54656616
LN,1,47,1,0.095,373.51943078,-0.44406296
LN,1,47,1,0.095,537.98067721,1.1969514
LN,1,47,1,0.095,727.63709087,-11.54810762
LN,1,47,1,0.095,946.34852608,-6.02029526
LN,1,47,1,0.095,1198.56615988,12.07147851
LN,1,47,1,0.095,1489.42308164,4.47037581
LN,1,47,1,0.095,1824.83876082,-4.1177336
LN,1,47,1,0.095,2211.63951892,-2.31659055
LN,1,47,1,0.095,2657.69745762,4.47507373
LN,1,47,1,0.095,3172.09067045,-3.14896895
LN,1,47,1,0.095,3765.28799853,0.48665207
LN,1,47,1,0.095,4449.36209061,-4.48068752
LN,1,47,1,0.095,5238.23510351,-2.06425248
LN,1,47,1,0.095,6147.96204348,-1.42083516
LN,1,47,1,0.095,7197.05751481,2.63021991
LN,1,47,1,0.095,8406.87252591,-8.85094404
LN,1,47,1,0.095,9802.02902128,-10.19835112
LN,1,47,1,0.095,11410.92098301,-1.90607682
LN,1,47,1,0.095,13266.29230024,7.69459568
LN,1,47,1,0.095,15405.90316702,0.79171972
LN,1,47,1,0.095,17873.29857123,-10.50050352
LN,1,47,1,0.095,20718.69451459,0.50398052
LN,1,47,1,0.095,24000,5.24247566
LN,1,48,0,0.232,0,12.34687872
LN,1,48,0,0.232,107.23874129,-2.60641233
LN,1,48,0,0.232,230.90626491,4.71267495
LN,1,48,0,0.232,373.51943078,-5.01139622
LN,1,48,0,0.232,537.98067721,-4.57503821
LN,1,48,0,0.232,727.63709087,8.34567708
LN,1,48,0,0.232,946.34852608,-5.92277839
LN,1,48,0,0.232,1198.56615988,0.74084144
LN,1,48,0,0.232,1489.42308164,-1.84361632
LN,1,48,0,0.232,1824.83876082,-3.07704482
LN,1,48,0,0.232,2211.63951892,0.89016177
LN,1,48,0,0.232,2657.69745762,-0.92980223
LN,1,48,0,0.232,3172.09067045,1.95805667
LN,1,48,0,0.232,3765.28799853,-3.25546344
LN,1,48,0,0.232,4449.36209061,2.66785908
LN,1,48,0,0.232,5238.23510351,5.00048787
LN,1,48,0,0.232,6147.96204348,-3.70523282
LN,1,48,0,0.232,7197.05751481,0.58714801
LN,1,48,0,0.232,8406.87252591,8.13691703
LN,1,48,0,0.232,9802.02902128,0.41715347
LN,1,48,0,0.232,11410.92098301,2.13495144
LN,1,48,0,0.232,13266.29230024,4.14730547
LN,1,48,0,0.232,15405.90316702,0.26068604
LN,1,48,0,0.232,17873.29857123,8.27119659
LN,1,48,0,0.232,20718.69451459,2.13842231
LN,1,48,0,0.232,24000,4.97172859
LN,1,48,1,0.232,0,-1.58780428
LN,1,48,1,0.232,107.23874129,6.41222236
LN,1,48,1,0.232,230.90626491,7.67662935
LN,1,48,1,0.232,373.51943078,2.86117494
LN,1,48,1,0.232,537.98067721,1.73424345
LN,1,48,1,0.232,727.63709087,-2.42476197
LN,1,48,1,0.232,946.34852608,0.51468863
LN,1,48,1,0.232,1198.56615988,4.10952116
LN,1,48,1,0.232,1489.42308164,2.20920819
