participant,sex,age,block,trial,response,RT
LN,M,30,1,1,stim2,0.267
LN,M,30,1,2,stim2,0.274
LN,M,30,1,3,stim2,0.128
LN,M,30,1,4,stim2,0.359
LN,M,30,1,5,stim2,0.233
LN,M,30,1,6,stim2,0.284
LN,M,30,1,7,stim1,0.225
LN,M,30,1,8,stim2,0.219
LN,M,30,1,9,stim2,0.23
LN,M,30,1,10,stim2,0.221
LN,M,30,1,11,stim2,0.28
LN,M,30,1,12,stim2,0.157
LN,M,30,1,13,stim1,0.218
LN,M,30,1,14,stim2,0.227
LN,M,30,1,15,stim2,0.11
LN,M,30,1,16,stim1,0.074
LN,M,30,1,17,stim2,0.162
LN,M,30,1,18,stim2,0.511
LN,M,30,1,19,stim2,0.243
LN,M,30,1,20,stim1,0.251
LN,M,30,1,21,stim1,0.149
LN,M,30,1,22,stim1,0.144
LN,M,30,1,23,stim2,0.148
LN,M,30,1,24,stim1,0.153
LN,M,30,1,25,stim1,0.231
LN,M,30,1,26,stim2,0.358
LN,M,30,1,27,stim1,0.066
LN,M,30,1,28,stim1,0.236
LN,M,30,1,29,stim1,0.259
LN,M,30,1,30,stim1,0.293
LN,M,30,1,31,stim1,0.217
LN,M,30,1,32,stim2,0.243
LN,M,30,1,33,stim1,0.219
LN,M,30,1,34,stim2,0.229
LN,M,30,1,35,stim1,0.246
LN,M,30,1,36,stim1,0.296
LN,M,30,1,37,stim1,0.229
LN,M,30,1,38,stim2,0.23
LN,M,30,1,39,stim1,0.222
LN,M,30,1,40,stim2,0.256
LN,M,30,1,41,stim2,0.218
LN,M,30,1,42,stim1,0.314
LN,M,30,1,43,stim2,0.248
LN,M,30,1,44,stim1,0.216
LN,M,30,1,45,stim2,0.162
LN,M,30,1,46,stim2,0.223
LN,M,30,1,47,stim2,0.095
LN,M,30,1,48,stim2,0.232
LN,M,30,1,49,stim1,0.303
LN,M,30,1,50,stim1,0.359
LN,M,30,1,51,stim2,0.281
LN,M,30,1,52,stim1,0.216
LN,M,30,1,53,stim1,0.22
LN,M,30,1,54,stim1,0.259
LN,M,30,1,55,stim2,0.451
LN,M,30,1,56,stim2,0.309
LN,M,30,1,57,stim1,0.218
LN,M,30,1,58,stim1,0.229
LN,M,30,1,59,stim1,0.124
LN,M,30,1,60,stim2,0.218
LN,M,30,1,61,stim1,0.212
LN,M,30,1,62,stim1,0.264
LN,M,30,1,63,stim1,0.269
LN,M,30,1,64,stim1,0.263
LN,M,30,1,65,stim2,0.165
LN,M,30,1,66,stim2,0.234
LN,M,30,1,67,stim1,0.281
LN,M,30,1,68,stim2,0.296
LN,M,30,1,69,stim2,0.16
LN,M,30,1,70,stim1,0.282
LN,M,30,1,71,stim1,0.363
LN,M,30,1,72,stim1,0.157
LN,M,30,1,73,stim1,0.218
LN,M,30,1,74,stim1,0.147
LN,M,30,1,75,stim2,0.151
LN,M,30,1,76,stim1,0.235
LN,M,30,1,77,stim1,0.326
LN,M,30,1,78,stim2,0.242
LN,M,30,1,79,stim2,0.085
LN,M,30,1,80,stim1,0.09
LN,M,30,1,81,stim2,0.121
LN,M,30,1,82,stim2,0.352
LN,M,30,1,83,stim1,0.131
LN,M,30,1,84,stim2,0.224
LN,M,30,1,85,stim2,0.22
LN,M,30,1,86,stim2,0.14
LN,M,30,1,87,stim2,0.274
LN,M,30,1,88,stim1,0.328
LN,M,30,1,89,stim1,0.36
LN,M,30,1,90,stim2,0.217
LN,M,30,1,91,stim2,0.925
LN,M,30,1,92,stim1,0.225
LN,M,30,1,93,stim2,0.13
LN,M,30,1,94,stim2,0.251
LN,M,30,1,95,stim2,0.255
LN,M,30,1,96,stim1,0.312
LN,M,30,1,97,stim2,0.285
LN,M,30,1,98,stim2,0.31
LN,M,30,1,99,stim1,0.258
LN,M,30,1,100,stim2,0.354
LN,M,30,2,1,stim2,0.241
LN,M,30,2,2,stim2,0.779
LN,M,30,2,3,stim2,0.22
LN,M,30,2,4,stim1,0.142
LN,M,30,2,5,stim1,0.157
LN,M,30,2,6,stim1,0.295
LN,M,30,2,7,stim1,0.289
LN,M,30,2,8,stim2,0.253
LN,M,30,2,9,stim2,0.232
LN,M,30,2,10,stim1,0.254
LN,M,30,2,11,stim1,0.272
LN,M,30,2,12,stim2,0.222
LN,M,30,2,13,stim2,0.258
LN,M,30,2,14,stim2,0.136
LN,M,30,2,15,stim1,0.069
LN,M,30,2,16,stim2,0.221
LN,M,30,2,17,stim2,0.296
LN,M,30,2,18,stim2,0.221
LN,M,30,2,19,stim1,0.222
LN,M,30,2,20,stim2,0.144
LN,M,30,2,21,stim2,0.222
LN,M,30,2,22,stim1,0.318
LN,M,30,2,23,stim2,0.276
LN,M,30,2,24,stim2,0.286
LN,M,30,2,25,stim1,0.122
LN,M,30,2,26,stim2,0.408
LN,M,30,2,27,stim1,0.108
LN,M,30,2,28,stim2,0.225
LN,M,30,2,29,stim2,0.132
LN,M,30,2,30,stim1,0.16
LN,M,30,2,31,stim2,0.131
LN,M,30,2,32,stim2,0.162
LN,M,30,2,33,stim2,0.22
LN,M,30,2,34,stim1,0.382
LN,M,30,2,35,stim2,0.24
LN,M,30,2,36,stim2,0.115
LN,M,30,2,37,stim1,0.24
LN,M,30,2,38,stim1,0.226
LN,M,30,2,39,stim2,0.218
LN,M,30,2,40,stim2,0.222
LN,M,30,2,41,stim1,0.269
LN,M,30,2,42,stim2,0.221
LN,M,30,2,43,stim2,0.152
LN,M,30,2,44,stim2,0.106
LN,M,30,2,45,stim2,0.178
LN,M,30,2,46,stim2,0.124
LN,M,30,2,47,stim2,0.299
LN,M,30,2,48,stim2,0.303
LN,M,30,2,49,stim2,0.12
LN,M,30,2,50,stim1,0.06
LN,M,30,2,51,stim2,0.059
LN,M,30,2,52,stim2,0.077
LN,M,30,2,53,stim1,0.018
LN,M,30,2,54,stim2,0.012
LN,M,30,2,55,stim1,0.133
LN,M,30,2,56,stim2,0.322
LN,M,30,2,57,stim2,0.226
LN,M,30,2,58,stim1,0.193
LN,M,30,2,59,stim2,0.291
LN,M,30,2,60,stim2,0.132
LN,M,30,2,61,stim2,0.255
LN,M,30,2,62,stim1,0.28
LN,M,30,2,63,stim1,0.241
LN,M,30,2,64,stim2,0.128
LN,M,30,2,65,stim1,0.373
LN,M,30,2,66,stim2,0.153
LN,M,30,2,67,stim2,0.255
LN,M,30,2,68,stim2,0.101
LN,M,30,2,69,stim1,0.251
LN,M,30,2,70,stim1,0.27
LN,M,30,2,71,stim1,0.227
LN,M,30,2,72,stim1,0.542
LN,M,30,2,73,stim2,0.161
LN,M,30,2,74,stim1,0.221
LN,M,30,2,75,stim1,0.313
LN,M,30,2,76,stim1,0.284
LN,M,30,2,77,stim2,0.131
LN,M,30,2,78,stim2,0.25
LN,M,30,2,79,stim1,0.528
LN,M,30,2,80,stim2,0.222
LN,M,30,2,81,stim1,0.127
LN,M,30,2,82,stim1,0.222
LN,M,30,2,83,stim1,0.102
LN,M,30,2,84,stim1,0.086
LN,M,30,2,85,stim1,0.219
LN,M,30,2,86,stim1,0.287
LN,M,30,2,87,stim1,0.076
LN,M,30,2,88,stim1,0.126
LN,M,30,2,89,stim1,0.329
LN,M,30,2,90,stim1,0.264
LN,M,30,2,91,stim1,0.222
LN,M,30,2,92,stim1,0.266
LN,M,30,2,93,stim2,0.599
LN,M,30,2,94,stim2,0.427
LN,M,30,2,95,stim2,0.13
LN,M,30,2,96,stim1,0.111
LN,M,30,2,97,stim1,0.223
LN,M,30,2,98,stim2,0.223
LN,M,30,2,99,stim2,0.466
LN,M,30,2,100,stim1,0.272
LN,M,30,3,1,stim1,0.992
LN,M,30,3,2,stim2,0.139
LN,M,30,3,3,stim1,0.256
LN,M,30,3,4,stim2,0.232
LN,M,30,3,5,stim2,0.131
LN,M,30,3,6,stim2,0.286
LN,M,30,3,7,stim2,0.223
LN,M,30,3,8,stim1,0.295
LN,M,30,3,9,stim2,0.125
LN,M,30,3,10,stim2,0.221
LN,M,30,3,11,stim2,0.268
LN,M,30,3,12,stim2,0.246
LN,M,30,3,13,stim1,0.324
LN,M,30,3,14,stim1,0.156
LN,M,30,3,15,stim1,0.223
LN,M,30,3,16,stim2,0.672
LN,M,30,3,17,stim2,0.154
LN,M,30,3,18,stim1,0.108
LN,M,30,3,19,stim1,0.1
LN,M,30,3,20,stim2,0.088
LN,M,30,3,21,stim1,0.071
LN,M,30,3,22,stim2,0.303
LN,M,30,3,23,stim2,0.047
LN,M,30,3,24,stim2,0.222
LN,M,30,3,25,stim2,0.225
LN,M,30,3,26,stim2,0.041
LN,M,30,3,27,stim1,0.338
LN,M,30,3,28,stim2,0.223
LN,M,30,3,29,stim2,0.226
LN,M,30,3,30,stim2,0.13
LN,M,30,3,31,stim1,0.007
LN,M,30,3,32,stim2,0.073
LN,M,30,3,33,stim2,0.083
LN,M,30,3,34,stim1,0.216
LN,M,30,3,35,stim2,0.186
LN,M,30,3,36,stim2,0.222
LN,M,30,3,37,stim1,0.278
LN,M,30,3,38,stim2,0.133
LN,M,30,3,39,stim2,0.076
LN,M,30,3,40,stim1,0.097
LN,M,30,3,41,stim2,0.223
LN,M,30,3,42,stim2,0.235
LN,M,30,3,43,stim2,0.226
LN,M,30,3,44,stim2,0.126
LN,M,30,3,45,stim2,0.401
LN,M,30,3,46,stim1,0.219
LN,M,30,3,47,stim2,0.125
LN,M,30,3,48,stim2,0.132
LN,M,30,3,49,stim2,0.096
LN,M,30,3,50,stim1,0.294
LN,M,30,3,51,stim2,0.052
LN,M,30,3,52,stim2,0.111
LN,M,30,3,53,stim2,0.218
LN,M,30,3,54,stim2,0.102
LN,M,30,3,55,stim2,0.146
LN,M,30,3,56,stim2,0.161
LN,M,30,3,57,stim1,0.29
LN,M,30,3,58,stim1,0.283
LN,M,30,3,59,stim2,0.024
LN,M,30,3,60,stim1,0.234
LN,M,30,3,61,stim2,0.107
LN,M,30,3,62,stim1,0.13
LN,M,30,3,63,stim1,0.416
LN,M,30,3,64,stim2,0.152
LN,M,30,3,65,stim1,0.252
LN,M,30,3,66,stim1,0.343
LN,M,30,3,67,stim1,0.313
LN,M,30,3,68,stim2,0.064
LN,M,30,3,69,stim1,0.127
LN,M,30,3,70,stim1,0.126
LN,M,30,3,71,stim1,0.217
LN,M,30,3,72,stim1,0.181
LN,M,30,3,73,stim1,0.39
LN,M,30,3,74,stim2,0.097
LN,M,30,3,75,stim2,0.121
LN,M,30,3,76,stim1,0.013
LN,M,30,3,77,stim2,0.046
LN,M,30,3,78,stim1,0.03
LN,M,30,3,79,stim2,0.096
LN,M,30,3,80,stim2,0.215
LN,M,30,3,81,stim2,0.247
LN,M,30,3,82,stim2,0.129
LN,M,30,3,83,stim2,0.276
LN,M,30,3,84,stim1,0.076
LN,M,30,3,85,stim2,0.115
LN,M,30,3,86,stim2,0.147
LN,M,30,3,87,stim1,0.325
LN,M,30,3,88,stim2,0.25
LN,M,30,3,89,stim2,0.221
LN,M,30,3,90,stim1,0.245
LN,M,30,3,91,stim2,0.237
LN,M,30,3,92,stim2,0.384
LN,M,30,3,93,stim1,0.297
LN,M,30,3,94,stim2,0.143
LN,M,30,3,95,stim1,0.283
LN,M,30,3,96,stim2,0.314
LN,M,30,3,97,stim2,0.266
LN,M,30,3,98,stim2,0.112
LN,M,30,3,99,stim2,0.135
LN,M,30,3,100,stim2,0.218
LN,M,30,4,1,stim2,0.076
LN,M,30,4,2,stim1,0.22
LN,M,30,4,3,stim1,0.223
LN,M,30,4,4,stim1,0.143
LN,M,30,4,5,stim1,0.293
LN,M,30,4,6,stim2,0.154
LN,M,30,4,7,stim1,0.254
LN,M,30,4,8,stim2,0.285
LN,M,30,4,9,stim2,0.222
LN,M,30,4,10,stim2,0.27
LN,M,30,4,11,stim2,0.088
LN,M,30,4,12,stim1,0.589
LN,M,30,4,13,stim2,0.112
LN,M,30,4,14,stim2,0.319
LN,M,30,4,15,stim2,0.123
LN,M,30,4,16,stim1,0.161
LN,M,30,4,17,stim1,0.302
LN,M,30,4,18,stim1,0.243
LN,M,30,4,19,stim1,0.229
LN,M,30,4,20,stim1,0.06
LN,M,30,4,21,stim1,0.134
LN,M,30,4,22,stim1,0.329
LN,M,30,4,23,stim2,0.134
LN,M,30,4,24,stim1,0.227
LN,M,30,4,25,stim2,0.348
LN,M,30,4,26,stim2,0.226
LN,M,30,4,27,stim2,0.074
LN,M,30,4,28,stim2,0.124
LN,M,30,4,29,stim2,0.079
LN,M,30,4,30,stim1,0.07
LN,M,30,4,31,stim2,0.086
LN,M,30,4,32,stim1,0.037
LN,M,30,4,33,stim1,0.017
LN,M,30,4,34,stim2,0.152
LN,M,30,4,35,stim2,0.222
LN,M,30,4,36,stim2,0.678
LN,M,30,4,37,stim2,0.222
LN,M,30,4,38,stim1,0.231
LN,M,30,4,39,stim1,0.329
LN,M,30,4,40,stim2,0.237
LN,M,30,4,41,stim2,0.223
LN,M,30,4,42,stim2,0.215
LN,M,30,4,43,stim2,0.195
LN,M,30,4,44,stim2,0.131
LN,M,30,4,45,stim1,0.08
LN,M,30,4,46,stim2,0.119
LN,M,30,4,47,stim2,0.062
LN,M,30,4,48,stim2,0.316
LN,M,30,4,49,stim1,0.13
LN,M,30,4,50,stim2,0.223
LN,M,30,4,51,stim1,0.153
LN,M,30,4,52,stim2,0.221
LN,M,30,4,53,stim2,0.009
LN,M,30,4,54,stim2,0.113
LN,M,30,4,55,stim2,0.249
LN,M,30,4,56,stim1,0.103
LN,M,30,4,57,stim2,0.15
LN,M,30,4,58,stim2,0.156
LN,M,30,4,59,stim2,0.038
LN,M,30,4,60,stim1,0.024
LN,M,30,4,61,stim1,0.1
LN,M,30,4,62,stim1,0.112
LN,M,30,4,63,stim2,0.293
LN,M,30,4,64,stim1,0.012
LN,M,30,4,65,stim1,0.223
LN,M,30,4,66,stim2,0.287
LN,M,30,4,67,stim2,0.12
LN,M,30,4,68,stim1,0.148
LN,M,30,4,69,stim2,0.704
LN,M,30,4,70,stim1,0.102
LN,M,30,4,71,stim1,0.079
LN,M,30,4,72,stim2,0.116
LN,M,30,4,73,stim2,0.211
LN,M,30,4,74,stim2,0.162
LN,M,30,4,75,stim1,1.062
LN,M,30,4,76,stim1,0.367
LN,M,30,4,77,stim2,0.393
LN,M,30,4,78,stim2,0.109
LN,M,30,4,79,stim1,0.226
LN,M,30,4,80,stim2,0.044
LN,M,30,4,81,stim2,0.222
LN,M,30,4,82,stim2,0.101
LN,M,30,4,83,stim1,0.267
LN,M,30,4,84,stim2,0.067
LN,M,30,4,85,stim1,0.227
LN,M,30,4,86,stim2,0.148
LN,M,30,4,87,stim2,0.217
LN,M,30,4,88,stim2,0.29
LN,M,30,4,89,stim1,0.225
LN,M,30,4,90,stim1,0.269
LN,M,30,4,91,stim2,0.059
LN,M,30,4,92,stim2,0.205
LN,M,30,4,93,stim1,0.285
LN,M,30,4,94,stim2,0.324
LN,M,30,4,95,stim1,0.321
LN,M,30,4,96,stim1,0.337
LN,M,30,4,97,stim2,0.324
LN,M,30,4,98,stim1,0.234
LN,M,30,4,99,stim2,0.163
LN,M,30,4,100,stim2,0.224
LN,M,30,5,1,stim1,0.351
LN,M,30,5,2,stim2,0.356
LN,M,30,5,3,stim2,0.042
LN,M,30,5,4,stim1,0.05
LN,M,30,5,5,stim1,0.06
LN,M,30,5,6,stim1,0.058
LN,M,30,5,7,stim2,0.243
LN,M,30,5,8,stim2,0.133
LN,M,30,5,9,stim1,0.16
LN,M,30,5,10,stim1,0.222
LN,M,30,5,11,stim2,0.109
LN,M,30,5,12,stim2,0.238
LN,M,30,5,13,stim1,0.149
LN,M,30,5,14,stim2,0.153
LN,M,30,5,15,stim2,0.581
LN,M,30,5,16,stim1,0.839
LN,M,30,5,17,stim1,0.226
LN,M,30,5,18,stim1,1.082
LN,M,30,5,19,stim1,0.09
LN,M,30,5,20,stim1,0.159
LN,M,30,5,21,stim2,0.411
LN,M,30,5,22,stim1,0.301
LN,M,30,5,23,stim2,0.291
LN,M,30,5,24,stim2,0.052
LN,M,30,5,25,stim1,0.154
LN,M,30,5,26,stim2,0.271
LN,M,30,5,27,stim1,0.334
LN,M,30,5,28,stim1,0.389
LN,M,30,5,29,stim1,0.222
LN,M,30,5,30,stim2,0.272
LN,M,30,5,31,stim2,0.106
LN,M,30,5,32,stim2,0.326
LN,M,30,5,33,stim1,0.203
LN,M,30,5,34,stim2,0.142
LN,M,30,5,35,stim1,0.563
LN,M,30,5,36,stim1,0.12
LN,M,30,5,37,stim1,0.388
LN,M,30,5,38,stim2,0.161
LN,M,30,5,39,stim2,0.268
LN,M,30,5,40,stim1,0.426
LN,M,30,5,41,stim1,0.109
LN,M,30,5,42,stim1,0.225
LN,M,30,5,43,stim1,0.621
LN,M,30,5,44,stim2,0.044
LN,M,30,5,45,stim1,0.133
LN,M,30,5,46,stim2,0.082
LN,M,30,5,47,stim2,0.091
LN,M,30,5,48,stim1,0.24
LN,M,30,5,49,stim2,0.249
LN,M,30,5,50,stim2,0.139
LN,M,30,5,51,stim2,0.142
LN,M,30,5,52,stim2,0.133
LN,M,30,5,53,stim1,0.304
LN,M,30,5,54,stim2,0.262
LN,M,30,5,55,stim2,0.096
LN,M,30,5,56,stim2,0.14
LN,M,30,5,57,stim2,0.108
LN,M,30,5,58,stim2,0.096
LN,M,30,5,59,stim1,0.223
LN,M,30,5,60,stim2,0.344
LN,M,30,5,61,stim2,0.15
LN,M,30,5,62,stim2,0.256
LN,M,30,5,63,stim2,0.107
LN,M,30,5,64,stim2,0.064
LN,M,30,5,65,stim2,0.089
LN,M,30,5,66,stim2,0.278
LN,M,30,5,67,stim1,0.293
LN,M,30,5,68,stim2,0.115
LN,M,30,5,69,stim1,0.097
LN,M,30,5,70,stim2,0.224
LN,M,30,5,71,stim2,0.275
LN,M,30,5,72,stim1,0.217
LN,M,30,5,73,stim2,0.25
LN,M,30,5,74,stim2,0.117
LN,M,30,5,75,stim1,0.224
LN,M,30,5,76,stim2,0.018
LN,M,30,5,77,stim1,0.532
LN,M,30,5,78,stim1,0.163
LN,M,30,5,79,stim1,0.181
LN,M,30,5,80,stim2,0.224
LN,M,30,5,81,stim2,0.131
LN,M,30,5,82,stim1,0.423
LN,M,30,5,83,stim2,0.128
LN,M,30,5,84,stim1,0.237
LN,M,30,5,85,stim2,0.126
LN,M,30,5,86,stim1,0.228
LN,M,30,5,87,stim2,0.084
LN,M,30,5,88,stim1,0.156
LN,M,30,5,89,stim1,0.354
LN,M,30,5,90,stim2,0.124
LN,M,30,5,91,stim2,0.092
LN,M,30,5,92,stim2,0.425
LN,M,30,5,93,stim2,0.101
LN,M,30,5,94,stim2,0.297
LN,M,30,5,95,stim2,0.385
LN,M,30,5,96,stim2,0.226
LN,M,30,5,97,stim1,0.155
LN,M,30,5,98,stim2,0.079
LN,M,30,5,99,stim2,0.073
LN,M,30,5,100,stim2,0.086
LN,M,30,6,1,stim1,0.134
LN,M,30,6,2,stim2,0.123
LN,M,30,6,3,stim1,0.089
LN,M,30,6,4,stim2,0.224
LN,M,30,6,5,stim1,0.114
LN,M,30,6,6,stim1,0.225
LN,M,30,6,7,stim2,0.129
LN,M,30,6,8,stim2,0.088
LN,M,30,6,9,stim2,0.245
LN,M,30,6,10,stim2,0.487
LN,M,30,6,11,stim2,0.076
LN,M,30,6,12,stim1,0.075
LN,M,30,6,13,stim1,0.101
LN,M,30,6,14,stim1,0.281
LN,M,30,6,15,stim1,0.122
LN,M,30,6,16,stim1,0.054
LN,M,30,6,17,stim2,0.222
LN,M,30,6,18,stim2,0.265
LN,M,30,6,19,stim2,0.142
LN,M,30,6,20,stim2,0.117
LN,M,30,6,21,stim2,0.161
LN,M,30,6,22,stim2,0.222
LN,M,30,6,23,stim2,0.358
LN,M,30,6,24,stim2,0.1
LN,M,30,6,25,stim1,1.073
LN,M,30,6,26,stim2,0.071
LN,M,30,6,27,stim1,0.128
LN,M,30,6,28,stim1,0.223
LN,M,30,6,29,stim1,0.222
LN,M,30,6,30,stim1,0.138
LN,M,30,6,31,stim1,0.221
LN,M,30,6,32,stim1,0.168
LN,M,30,6,33,stim1,0.122
LN,M,30,6,34,stim1,0.225
LN,M,30,6,35,stim1,0.217
LN,M,30,6,36,stim1,0.268
LN,M,30,6,37,stim1,0.122
LN,M,30,6,38,stim1,0.226
LN,M,30,6,39,stim1,0.177
LN,M,30,6,40,stim2,0.22
LN,M,30,6,41,stim2,0.12
LN,M,30,6,42,stim1,0.1
LN,M,30,6,43,stim2,0.13
LN,M,30,6,44,stim2,0.154
LN,M,30,6,45,stim2,0.091
LN,M,30,6,46,stim2,0.26
LN,M,30,6,47,stim2,0.098
LN,M,30,6,48,stim1,0.16
LN,M,30,6,49,stim1,0.086
LN,M,30,6,50,stim1,0.147
LN,M,30,6,51,stim2,0.921
LN,M,30,6,52,stim1,0.068
LN,M,30,6,53,stim2,0.036
LN,M,30,6,54,stim2,0.111
LN,M,30,6,55,stim2,0.219
LN,M,30,6,56,stim2,0.134
LN,M,30,6,57,stim1,0.169
LN,M,30,6,58,stim2,0.261
LN,M,30,6,59,stim1,0.284
LN,M,30,6,60,stim2,0.108
LN,M,30,6,61,stim2,0.132
LN,M,30,6,62,stim2,0.319
LN,M,30,6,63,stim2,0.079
LN,M,30,6,64,stim2,0.219
LN,M,30,6,65,stim2,0.159
LN,M,30,6,66,stim2,0.226
LN,M,30,6,67,stim2,0.101
LN,M,30,6,68,stim2,0.034
LN,M,30,6,69,stim1,0.179
LN,M,30,6,70,stim2,0.07
LN,M,30,6,71,stim2,0.232
LN,M,30,6,72,stim2,0.278
LN,M,30,6,73,stim1,0.213
LN,M,30,6,74,stim1,0.321
LN,M,30,6,75,stim2,0.332
LN,M,30,6,76,stim2,0.443
LN,M,30,6,77,stim1,0.298
LN,M,30,6,78,stim2,0.145
LN,M,30,6,79,stim2,0.119
LN,M,30,6,80,stim2,0.243
LN,M,30,6,81,stim1,0.227
LN,M,30,6,82,stim2,0.267
LN,M,30,6,83,stim1,0.091
LN,M,30,6,84,stim2,0.154
LN,M,30,6,85,stim2,0.105
LN,M,30,6,86,stim2,0.085
LN,M,30,6,87,stim1,0.253
LN,M,30,6,88,stim2,0.133
LN,M,30,6,89,stim2,0.228
LN,M,30,6,90,stim2,0.146
LN,M,30,6,91,stim1,0.11
LN,M,30,6,92,stim1,0.254
LN,M,30,6,93,stim2,0.052
LN,M,30,6,94,stim2,0.134
LN,M,30,6,95,stim2,0.449
LN,M,30,6,96,stim2,0.099
LN,M,30,6,97,stim2,0.088
LN,M,30,6,98,stim2,0.257
LN,M,30,6,99,stim1,0.143
LN,M,30,6,100,stim2,0.076
LN,M,30,7,1,stim1,0.132
LN,M,30,7,2,stim2,0.105
LN,M,30,7,3,stim1,0.031
LN,M,30,7,4,stim1,0.147
LN,M,30,7,5,stim2,0.053
LN,M,30,7,6,stim1,0.125
LN,M,30,7,7,stim2,0.091
LN,M,30,7,8,stim2,0.1
LN,M,30,7,9,stim1,0.12
LN,M,30,7,10,stim2,0.286
LN,M,30,7,11,stim2,0.135
LN,M,30,7,12,stim1,0.218
LN,M,30,7,13,stim1,0.078
LN,M,30,7,14,stim2,0.027
LN,M,30,7,15,stim1,0.06
LN,M,30,7,16,stim1,0.022
LN,M,30,7,17,stim2,0.061
LN,M,30,7,18,stim2,0.063
LN,M,30,7,19,stim2,0.037
LN,M,30,7,20,stim2,0.024
LN,M,30,7,21,stim2,0.047
LN,M,30,7,22,stim2,0.154
LN,M,30,7,23,stim2,0.02
LN,M,30,7,24,stim2,0.137
LN,M,30,7,25,stim2,0.147
LN,M,30,7,26,stim2,0.258
LN,M,30,7,27,stim1,0.033
LN,M,30,7,28,stim1,0.075
LN,M,30,7,29,stim1,0.008
LN,M,30,7,30,stim1,0.221
LN,M,30,7,31,stim2,0.061
LN,M,30,7,32,stim2,0.118
LN,M,30,7,33,stim1,0.082
LN,M,30,7,34,stim2,0.089
LN,M,30,7,35,stim2,0.066
LN,M,30,7,36,stim2,0.088
LN,M,30,7,37,stim2,0.041
LN,M,30,7,38,stim1,0.112
LN,M,30,7,39,stim2,0.102
LN,M,30,7,40,stim2,0.062
LN,M,30,7,41,stim2,0.084
LN,M,30,7,42,stim1,0.123
LN,M,30,7,43,stim2,0.097
LN,M,30,7,44,stim2,0.353
LN,M,30,7,45,stim1,0.044
LN,M,30,7,46,stim1,0.142
LN,M,30,7,47,stim1,0.081
LN,M,30,7,48,stim1,0.082
LN,M,30,7,49,stim1,0.087
LN,M,30,7,50,stim2,0.102
LN,M,30,7,51,stim2,0.054
LN,M,30,7,52,stim1,0.061
LN,M,30,7,53,stim2,0.029
LN,M,30,7,54,stim2,0.08
LN,M,30,7,55,stim2,0.068
LN,M,30,7,56,stim1,0.037
LN,M,30,7,57,stim1,0.112
LN,M,30,7,58,stim2,0.075
LN,M,30,7,59,stim1,0.557
LN,M,30,7,60,stim2,0.063
LN,M,30,7,61,stim2,0.057
LN,M,30,7,62,stim2,0.402
LN,M,30,7,63,stim2,0.081
LN,M,30,7,64,stim2,0.075
LN,M,30,7,65,stim2,0.138
LN,M,30,7,66,stim1,0.093
LN,M,30,7,67,stim1,0.078
LN,M,30,7,68,stim2,0.043
LN,M,30,7,69,stim2,0.014
LN,M,30,7,70,stim1,0.029
LN,M,30,7,71,stim2,0.102
LN,M,30,7,72,stim1,0.093
LN,M,30,7,73,stim1,0.061
LN,M,30,7,74,stim2,0.059
LN,M,30,7,75,stim2,0.125
LN,M,30,7,76,stim2,0.265
LN,M,30,7,77,stim1,0.281
LN,M,30,7,78,stim2,0.088
LN,M,30,7,79,stim2,0.105
LN,M,30,7,80,stim2,0.133
LN,M,30,7,81,stim2,0.132
LN,M,30,7,82,stim2,0.111
LN,M,30,7,83,stim1,0.157
LN,M,30,7,84,stim2,0.273
LN,M,30,7,85,stim2,0.179
LN,M,30,7,86,stim1,0.548
LN,M,30,7,87,stim1,0.218
LN,M,30,7,88,stim2,0.217
LN,M,30,7,89,stim1,0.227
LN,M,30,7,90,stim1,0.27
LN,M,30,7,91,stim2,0.156
LN,M,30,7,92,stim2,0.29
LN,M,30,7,93,stim2,0.143
LN,M,30,7,94,stim2,0.11
LN,M,30,7,95,stim2,0.217
LN,M,30,7,96,stim2,0.053
LN,M,30,7,97,stim2,0.172
LN,M,30,7,98,stim2,0.121
LN,M,30,7,99,stim2,0.093
LN,M,30,7,100,stim2,0.221
MM,F,23,1,1,stim1,0.5
MM,F,23,1,2,stim1,0.709
MM,F,23,1,3,stim1,1.354
MM,F,23,1,4,stim2,1.063
MM,F,23,1,5,stim2,1.057
MM,F,23,1,6,stim1,1.288
MM,F,23,1,7,stim1,1.337
MM,F,23,1,8,stim1,1.013
MM,F,23,1,9,stim1,0.865
MM,F,23,1,10,stim1,0.959
MM,F,23,1,11,stim2,1.172
MM,F,23,1,12,stim2,0.651
MM,F,23,1,13,stim2,1.058
MM,F,23,1,14,stim1,0.803
MM,F,23,1,15,stim1,0.624
MM,F,23,1,16,stim1,0.672
MM,F,23,1,17,stim2,0.713
MM,F,23,1,18,stim1,0.645
MM,F,23,1,19,stim1,0.601
MM,F,23,1,20,stim1,0.906
MM,F,23,1,21,stim2,0.769
MM,F,23,1,22,stim1,1.069
MM,F,23,1,23,stim1,0.84
MM,F,23,1,24,stim2,0.519
MM,F,23,1,25,stim1,0.822
MM,F,23,1,26,stim1,0.811
MM,F,23,1,27,stim1,0.691
MM,F,23,1,28,stim1,1.133
MM,F,23,1,29,stim1,0.744
MM,F,23,1,30,stim1,0.767
MM,F,23,1,31,stim1,0.698
MM,F,23,1,32,stim1,0.723
MM,F,23,1,33,stim1,0.815
MM,F,23,1,34,stim2,0.562
MM,F,23,1,35,stim2,0.665
MM,F,23,1,36,stim1,0.639
MM,F,23,1,37,stim1,0.427
MM,F,23,1,38,stim1,0.651
MM,F,23,1,39,stim1,0.638
MM,F,23,1,40,stim2,0.654
MM,F,23,1,41,stim1,1.03
MM,F,23,1,42,stim1,1.083
MM,F,23,1,43,stim2,0.648
MM,F,23,1,44,stim2,0.652
MM,F,23,1,45,stim1,0.755
MM,F,23,1,46,stim2,0.776
MM,F,23,1,47,stim2,0.774
MM,F,23,1,48,stim1,0.513
MM,F,23,1,49,stim1,1.346
MM,F,23,1,50,stim1,0.604
MM,F,23,1,51,stim1,0.689
MM,F,23,1,52,stim2,0.887
MM,F,23,1,53,stim2,0.929
MM,F,23,1,54,stim2,0.677
MM,F,23,1,55,stim1,0.54
MM,F,23,1,56,stim2,0.698
MM,F,23,1,57,stim1,0.529
MM,F,23,1,58,stim1,0.817
MM,F,23,1,59,stim1,0.946
MM,F,23,1,60,stim1,0.736
MM,F,23,1,61,stim2,0.684
MM,F,23,1,62,stim1,0.509
MM,F,23,1,63,stim1,0.678
MM,F,23,1,64,stim1,0.763
MM,F,23,1,65,stim1,1.202
MM,F,23,1,66,stim2,1.203
MM,F,23,1,67,stim2,0.96
MM,F,23,1,68,stim1,0.515
MM,F,23,1,69,stim1,0.532
MM,F,23,1,70,stim2,0.927
MM,F,23,1,71,stim1,1.101
MM,F,23,1,72,stim1,0.558
MM,F,23,1,73,stim1,0.649
MM,F,23,1,74,stim1,0.828
MM,F,23,1,75,stim1,0.78
MM,F,23,1,76,stim2,0.392
MM,F,23,1,77,stim1,0.916
MM,F,23,1,78,stim1,0.428
MM,F,23,1,79,stim2,0.62
MM,F,23,1,80,stim2,0.521
MM,F,23,1,81,stim1,0.742
MM,F,23,1,82,stim2,0.419
MM,F,23,1,83,stim2,0.472
MM,F,23,1,84,stim2,0.623
MM,F,23,1,85,stim1,0.641
MM,F,23,1,86,stim1,0.461
MM,F,23,1,87,stim1,0.387
MM,F,23,1,88,stim1,0.513
MM,F,23,1,89,stim1,0.63
MM,F,23,1,90,stim1,0.834
MM,F,23,1,91,stim2,1.202
MM,F,23,1,92,stim1,0.413
MM,F,23,1,93,stim1,0.657
MM,F,23,1,94,stim1,1.08
MM,F,23,1,95,stim1,0.65
MM,F,23,1,96,stim2,0.441
MM,F,23,1,97,stim2,1.125
MM,F,23,1,98,stim2,0.489
MM,F,23,1,99,stim2,0.915
MM,F,23,1,100,stim2,0.776
MM,F,23,2,1,stim1,0.391
MM,F,23,2,2,stim1,0.573
MM,F,23,2,3,stim2,0.512
MM,F,23,2,4,stim2,0.472
MM,F,23,2,5,stim1,0.446
MM,F,23,2,6,stim1,0.394
MM,F,23,2,7,stim2,0.427
MM,F,23,2,8,stim2,0.487
MM,F,23,2,9,stim2,0.445
MM,F,23,2,10,stim1,0.534
MM,F,23,2,11,stim2,0.508
MM,F,23,2,12,stim1,0.803
MM,F,23,2,13,stim1,0.96
MM,F,23,2,14,stim1,0.651
MM,F,23,2,15,stim1,0.526
MM,F,23,2,16,stim2,0.41
MM,F,23,2,17,stim2,1.319
MM,F,23,2,18,stim1,0.379
MM,F,23,2,19,stim1,1.009
MM,F,23,2,20,stim2,1.13
MM,F,23,2,21,stim1,0.48
MM,F,23,2,22,stim2,0.76
MM,F,23,2,23,stim1,0.548
MM,F,23,2,24,stim2,0.945
MM,F,23,2,25,stim2,1.009
MM,F,23,2,26,stim1,0.97
MM,F,23,2,27,stim2,0.534
MM,F,23,2,28,stim1,0.932
MM,F,23,2,29,stim2,0.778
MM,F,23,2,30,stim1,0.741
MM,F,23,2,31,stim1,0.549
MM,F,23,2,32,stim1,0.864
MM,F,23,2,33,stim1,0.619
MM,F,23,2,34,stim1,0.699
MM,F,23,2,35,stim2,0.378
MM,F,23,2,36,stim1,0.919
MM,F,23,2,37,stim2,0.981
MM,F,23,2,38,stim1,0.697
MM,F,23,2,39,stim2,0.447
MM,F,23,2,40,stim1,1.457
MM,F,23,2,41,stim1,0.684
MM,F,23,2,42,stim2,0.402
MM,F,23,2,43,stim2,0.383
MM,F,23,2,44,stim2,0.553
MM,F,23,2,45,stim2,1.976
MM,F,23,2,46,stim2,0.37
MM,F,23,2,47,stim2,1.249
MM,F,23,2,48,stim2,0.775
MM,F,23,2,49,stim2,0.974
MM,F,23,2,50,stim1,0.408
MM,F,23,2,51,stim1,0.502
MM,F,23,2,52,stim2,0.347
MM,F,23,2,53,stim1,0.896
MM,F,23,2,54,stim1,1.849
MM,F,23,2,55,stim2,1.264
MM,F,23,2,56,stim2,0.434
MM,F,23,2,57,stim1,0.602
MM,F,23,2,58,stim1,0.464
MM,F,23,2,59,stim1,1.198
MM,F,23,2,60,stim2,0.961
MM,F,23,2,61,stim1,0.429
MM,F,23,2,62,stim1,1.449
MM,F,23,2,63,stim1,0.656
MM,F,23,2,64,stim2,0.353
MM,F,23,2,65,stim2,2.168
MM,F,23,2,66,stim2,0.706
MM,F,23,2,67,stim2,1.291
MM,F,23,2,68,stim1,0.361
MM,F,23,2,69,stim2,0.805
MM,F,23,2,70,stim2,0.835
MM,F,23,2,71,stim2,1.674
MM,F,23,2,72,stim1,0.434
MM,F,23,2,73,stim1,0.615
MM,F,23,2,74,stim2,1.319
MM,F,23,2,75,stim1,0.437
MM,F,23,2,76,stim1,0.729
MM,F,23,2,77,stim1,1.141
MM,F,23,2,78,stim1,0.613
MM,F,23,2,79,stim2,0.485
MM,F,23,2,80,stim1,0.893
MM,F,23,2,81,stim1,1.543
MM,F,23,2,82,stim1,1.122
MM,F,23,2,83,stim2,0.792
MM,F,23,2,84,stim2,0.622
MM,F,23,2,85,stim2,0.415
MM,F,23,2,86,stim1,0.577
MM,F,23,2,87,stim1,0.511
MM,F,23,2,88,stim2,1.476
MM,F,23,2,89,stim2,1.134
MM,F,23,2,90,stim2,0.801
MM,F,23,2,91,stim1,0.517
MM,F,23,2,92,stim1,0.957
MM,F,23,2,93,stim1,0.768
MM,F,23,2,94,stim1,0.647
MM,F,23,2,95,stim1,0.478
MM,F,23,2,96,stim1,1.192
MM,F,23,2,97,stim1,0.937
MM,F,23,2,98,stim2,0.783
MM,F,23,2,99,stim1,0.635
MM,F,23,2,100,stim1,0.926
MM,F,23,3,1,stim2,0.729
MM,F,23,3,2,stim1,0.543
MM,F,23,3,3,stim2,0.772
MM,F,23,3,4,stim1,0.425
MM,F,23,3,5,stim2,0.427
MM,F,23,3,6,stim2,0.4
MM,F,23,3,7,stim2,0.801
MM,F,23,3,8,stim1,1.204
MM,F,23,3,9,stim1,0.392
MM,F,23,3,10,stim1,0.707
MM,F,23,3,11,stim1,0.892
MM,F,23,3,12,stim2,0.722
MM,F,23,3,13,stim1,0.496
MM,F,23,3,14,stim2,0.895
MM,F,23,3,15,stim1,1.134
MM,F,23,3,16,stim1,0.422
MM,F,23,3,17,stim1,0.886
MM,F,23,3,18,stim1,0.648
MM,F,23,3,19,stim1,0.664
MM,F,23,3,20,stim2,0.376
MM,F,23,3,21,stim1,0.597
MM,F,23,3,22,stim1,0.994
MM,F,23,3,23,stim2,0.867
MM,F,23,3,24,stim1,0.684
MM,F,23,3,25,stim2,0.755
MM,F,23,3,26,stim2,0.41
MM,F,23,3,27,stim2,1.179
MM,F,23,3,28,stim1,0.614
MM,F,23,3,29,stim2,0.409
MM,F,23,3,30,stim2,0.685
MM,F,23,3,31,stim2,0.788
MM,F,23,3,32,stim2,0.626
MM,F,23,3,33,stim2,0.474
MM,F,23,3,34,stim1,0.755
MM,F,23,3,35,stim1,0.554
MM,F,23,3,36,stim2,0.373
MM,F,23,3,37,stim1,0.77
MM,F,23,3,38,stim1,0.664
MM,F,23,3,39,stim1,0.783
MM,F,23,3,40,stim1,0.661
MM,F,23,3,41,stim2,1.139
MM,F,23,3,42,stim1,0.57
MM,F,23,3,43,stim1,0.607
MM,F,23,3,44,stim1,0.528
MM,F,23,3,45,stim2,0.519
MM,F,23,3,46,stim2,0.463
MM,F,23,3,47,stim2,0.822
MM,F,23,3,48,stim2,0.786
MM,F,23,3,49,stim2,0.812
MM,F,23,3,50,stim1,0.775
MM,F,23,3,51,stim1,0.917
MM,F,23,3,52,stim1,1.081
MM,F,23,3,53,stim1,0.795
MM,F,23,3,54,stim1,0.412
MM,F,23,3,55,stim2,0.895
MM,F,23,3,56,stim1,0.638
MM,F,23,3,57,stim2,0.728
MM,F,23,3,58,stim2,1.215
MM,F,23,3,59,stim1,0.807
MM,F,23,3,60,stim1,0.517
MM,F,23,3,61,stim2,1.497
MM,F,23,3,62,stim2,1.37
MM,F,23,3,63,stim2,0.588
MM,F,23,3,64,stim1,0.544
MM,F,23,3,65,stim1,0.559
MM,F,23,3,66,stim2,0.603
MM,F,23,3,67,stim1,0.694
MM,F,23,3,68,stim1,1.071
MM,F,23,3,69,stim2,0.853
MM,F,23,3,70,stim2,0.76
MM,F,23,3,71,stim2,1.123
MM,F,23,3,72,stim2,0.699
MM,F,23,3,73,stim2,1.08
MM,F,23,3,74,stim2,0.762
MM,F,23,3,75,stim2,0.868
MM,F,23,3,76,stim1,0.493
MM,F,23,3,77,stim1,0.926
MM,F,23,3,78,stim1,0.586
MM,F,23,3,79,stim1,0.768
MM,F,23,3,80,stim1,1.355
MM,F,23,3,81,stim2,0.312
MM,F,23,3,82,stim1,0.319
MM,F,23,3,83,stim1,0.735
MM,F,23,3,84,stim2,0.619
MM,F,23,3,85,stim1,0.709
MM,F,23,3,86,stim1,1.118
MM,F,23,3,87,stim1,0.707
MM,F,23,3,88,stim1,1.028
MM,F,23,3,89,stim1,0.403
MM,F,23,3,90,stim2,0.967
MM,F,23,3,91,stim1,0.883
MM,F,23,3,92,stim1,0.301
MM,F,23,3,93,stim2,1.474
MM,F,23,3,94,stim1,0.954
MM,F,23,3,95,stim2,0.479
MM,F,23,3,96,stim2,0.353
MM,F,23,3,97,stim2,0.477
MM,F,23,3,98,stim1,1.053
MM,F,23,3,99,stim1,0.648
MM,F,23,3,100,stim2,0.607
MM,F,23,4,1,stim1,0.645
MM,F,23,4,2,stim1,0.632
MM,F,23,4,3,stim1,0.527
MM,F,23,4,4,stim1,0.416
MM,F,23,4,5,stim2,0.384
MM,F,23,4,6,stim1,0.556
MM,F,23,4,7,stim1,0.875
MM,F,23,4,8,stim1,1.314
MM,F,23,4,9,stim2,1.456
MM,F,23,4,10,stim2,1.123
MM,F,23,4,11,stim1,0.495
MM,F,23,4,12,stim1,0.52
MM,F,23,4,13,stim2,0.861
MM,F,23,4,14,stim2,0.559
MM,F,23,4,15,stim2,0.546
MM,F,23,4,16,stim2,0.442
MM,F,23,4,17,stim2,0.546
MM,F,23,4,18,stim2,0.649
MM,F,23,4,19,stim2,0.736
MM,F,23,4,20,stim2,1.424
MM,F,23,4,21,stim2,0.512
MM,F,23,4,22,stim2,0.697
MM,F,23,4,23,stim2,0.422
MM,F,23,4,24,stim2,0.539
MM,F,23,4,25,stim2,1.238
MM,F,23,4,26,stim1,1.248
MM,F,23,4,27,stim1,0.347
MM,F,23,4,28,stim1,0.566
MM,F,23,4,29,stim1,0.677
MM,F,23,4,30,stim1,0.922
MM,F,23,4,31,stim1,1.003
MM,F,23,4,32,stim2,0.908
MM,F,23,4,33,stim1,0.299
MM,F,23,4,34,stim2,0.738
MM,F,23,4,35,stim2,0.498
MM,F,23,4,36,stim1,0.559
MM,F,23,4,37,stim1,1.518
MM,F,23,4,38,stim1,0.563
MM,F,23,4,39,stim1,0.505
MM,F,23,4,40,stim2,0.83
MM,F,23,4,41,stim1,0.808
MM,F,23,4,42,stim1,1.125
MM,F,23,4,43,stim2,0.361
MM,F,23,4,44,stim2,0.521
MM,F,23,4,45,stim2,0.573
MM,F,23,4,46,stim1,0.226
MM,F,23,4,47,stim2,0.716
MM,F,23,4,48,stim2,0.517
MM,F,23,4,49,stim2,0.641
MM,F,23,4,50,stim1,0.987
MM,F,23,4,51,stim2,0.982
MM,F,23,4,52,stim1,0.77
MM,F,23,4,53,stim2,0.439
MM,F,23,4,54,stim2,0.595
MM,F,23,4,55,stim2,1.66
MM,F,23,4,56,stim1,0.564
MM,F,23,4,57,stim1,0.643
MM,F,23,4,58,stim1,1.938
MM,F,23,4,59,stim2,0.952
MM,F,23,4,60,stim2,0.543
MM,F,23,4,61,stim1,0.491
MM,F,23,4,62,stim1,0.413
MM,F,23,4,63,stim1,0.789
MM,F,23,4,64,stim2,0.881
MM,F,23,4,65,stim1,0.649
MM,F,23,4,66,stim1,1.06
MM,F,23,4,67,stim2,0.602
MM,F,23,4,68,stim1,0.597
MM,F,23,4,69,stim2,0.705
MM,F,23,4,70,stim2,0.674
MM,F,23,4,71,stim1,0.624
MM,F,23,4,72,stim1,0.565
MM,F,23,4,73,stim1,0.351
MM,F,23,4,74,stim1,0.543
MM,F,23,4,75,stim2,0.418
MM,F,23,4,76,stim1,0.397
MM,F,23,4,77,stim1,1.163
MM,F,23,4,78,stim1,1.221
MM,F,23,4,79,stim1,0.481
MM,F,23,4,80,stim2,1.559
MM,F,23,4,81,stim1,1.124
MM,F,23,4,82,stim2,0.474
MM,F,23,4,83,stim2,1.013
MM,F,23,4,84,stim1,0.317
MM,F,23,4,85,stim2,0.836
MM,F,23,4,86,stim2,0.575
MM,F,23,4,87,stim1,0.546
MM,F,23,4,88,stim2,1.119
MM,F,23,4,89,stim1,0.333
MM,F,23,4,90,stim2,1.052
MM,F,23,4,91,stim2,0.814
MM,F,23,4,92,stim2,0.527
MM,F,23,4,93,stim1,1.173
MM,F,23,4,94,stim1,0.499
MM,F,23,4,95,stim1,0.952
MM,F,23,4,96,stim2,0.629
MM,F,23,4,97,stim1,0.431
MM,F,23,4,98,stim2,1.065
MM,F,23,4,99,stim2,0.427
MM,F,23,4,100,stim1,0.619
MM,F,23,5,1,stim1,0.295
MM,F,23,5,2,stim2,0.59
MM,F,23,5,3,stim2,0.332
MM,F,23,5,4,stim1,0.344
MM,F,23,5,5,stim1,0.519
MM,F,23,5,6,stim1,0.996
MM,F,23,5,7,stim1,0.569
MM,F,23,5,8,stim1,0.436
MM,F,23,5,9,stim2,0.91
MM,F,23,5,10,stim1,0.668
MM,F,23,5,11,stim1,0.567
MM,F,23,5,12,stim1,0.649
MM,F,23,5,13,stim2,0.722
MM,F,23,5,14,stim2,0.875
MM,F,23,5,15,stim2,0.513
MM,F,23,5,16,stim2,0.554
MM,F,23,5,17,stim1,0.477
MM,F,23,5,18,stim1,0.391
MM,F,23,5,19,stim1,0.384
MM,F,23,5,20,stim1,0.439
MM,F,23,5,21,stim2,1.183
MM,F,23,5,22,stim1,0.53
MM,F,23,5,23,stim2,0.352
MM,F,23,5,24,stim1,0.309
MM,F,23,5,25,stim2,0.773
MM,F,23,5,26,stim2,1.059
MM,F,23,5,27,stim2,0.298
MM,F,23,5,28,stim1,0.546
MM,F,23,5,29,stim2,1.295
MM,F,23,5,30,stim1,1.438
MM,F,23,5,31,stim2,0.295
MM,F,23,5,32,stim2,0.385
MM,F,23,5,33,stim2,0.603
MM,F,23,5,34,stim2,0.472
MM,F,23,5,35,stim1,0.502
MM,F,23,5,36,stim1,0.92
MM,F,23,5,37,stim1,0.516
MM,F,23,5,38,stim1,0.477
MM,F,23,5,39,stim1,0.378
MM,F,23,5,40,stim2,0.455
MM,F,23,5,41,stim1,1.376
MM,F,23,5,42,stim1,0.87
MM,F,23,5,43,stim1,1.124
MM,F,23,5,44,stim1,0.949
MM,F,23,5,45,stim1,0.528
MM,F,23,5,46,stim2,0.582
MM,F,23,5,47,stim1,0.401
MM,F,23,5,48,stim1,0.735
MM,F,23,5,49,stim2,0.411
MM,F,23,5,50,stim1,0.709
MM,F,23,5,51,stim2,1.092
MM,F,23,5,52,stim2,0.542
MM,F,23,5,53,stim2,0.386
MM,F,23,5,54,stim1,0.294
MM,F,23,5,55,stim2,0.309
MM,F,23,5,56,stim2,0.511
MM,F,23,5,57,stim1,0.443
MM,F,23,5,58,stim2,0.541
MM,F,23,5,59,stim1,0.987
MM,F,23,5,60,stim2,0.822
MM,F,23,5,61,stim2,0.482
MM,F,23,5,62,stim2,0.401
MM,F,23,5,63,stim2,0.43
MM,F,23,5,64,stim1,0.27
MM,F,23,5,65,stim1,0.376
MM,F,23,5,66,stim2,0.354
MM,F,23,5,67,stim2,0.362
MM,F,23,5,68,stim2,0.564
MM,F,23,5,69,stim2,0.651
MM,F,23,5,70,stim2,1.451
MM,F,23,5,71,stim1,0.723
MM,F,23,5,72,stim2,0.473
MM,F,23,5,73,stim1,0.57
MM,F,23,5,74,stim1,1.368
MM,F,23,5,75,stim1,1.282
MM,F,23,5,76,stim2,0.634
MM,F,23,5,77,stim2,0.71
MM,F,23,5,78,stim2,0.667
MM,F,23,5,79,stim2,0.453
MM,F,23,5,80,stim2,0.445
MM,F,23,5,81,stim1,0.574
MM,F,23,5,82,stim1,0.884
MM,F,23,5,83,stim1,0.466
MM,F,23,5,84,stim2,0.795
MM,F,23,5,85,stim1,0.51
MM,F,23,5,86,stim1,0.91
MM,F,23,5,87,stim1,1.499
MM,F,23,5,88,stim1,0.331
MM,F,23,5,89,stim1,0.671
MM,F,23,5,90,stim2,0.296
MM,F,23,5,91,stim1,0.414
MM,F,23,5,92,stim1,0.507
MM,F,23,5,93,stim1,0.76
MM,F,23,5,94,stim1,0.647
MM,F,23,5,95,stim2,0.47
MM,F,23,5,96,stim2,0.441
MM,F,23,5,97,stim2,1.745
MM,F,23,5,98,stim2,0.431
MM,F,23,5,99,stim1,0.367
MM,F,23,5,100,stim1,0.462
MM,F,23,6,1,stim1,0.377
MM,F,23,6,2,stim1,0.655
MM,F,23,6,3,stim1,0.422
MM,F,23,6,4,stim2,0.513
MM,F,23,6,5,stim1,0.552
MM,F,23,6,6,stim1,0.318
MM,F,23,6,7,stim2,0.483
MM,F,23,6,8,stim2,0.413
MM,F,23,6,9,stim1,0.542
MM,F,23,6,10,stim1,0.43
MM,F,23,6,11,stim2,0.198
MM,F,23,6,12,stim1,0.313
MM,F,23,6,13,stim1,0.73
MM,F,23,6,14,stim1,0.91
MM,F,23,6,15,stim2,0.477
MM,F,23,6,16,stim1,0.253
MM,F,23,6,17,stim1,0.416
MM,F,23,6,18,stim2,0.953
MM,F,23,6,19,stim2,0.392
MM,F,23,6,20,stim1,0.626
MM,F,23,6,21,stim1,0.646
MM,F,23,6,22,stim1,0.557
MM,F,23,6,23,stim1,0.765
MM,F,23,6,24,stim1,1.151
MM,F,23,6,25,stim1,0.766
MM,F,23,6,26,stim1,0.993
MM,F,23,6,27,stim2,0.748
MM,F,23,6,28,stim1,0.977
MM,F,23,6,29,stim2,0.253
MM,F,23,6,30,stim2,0.425
MM,F,23,6,31,stim2,0.521
MM,F,23,6,32,stim1,1.4
MM,F,23,6,33,stim1,1.34
MM,F,23,6,34,stim2,0.488
MM,F,23,6,35,stim1,0.768
MM,F,23,6,36,stim2,0.492
MM,F,23,6,37,stim2,0.534
MM,F,23,6,38,stim2,0.466
MM,F,23,6,39,stim2,0.565
MM,F,23,6,40,stim2,0.591
MM,F,23,6,41,stim1,1.075
MM,F,23,6,42,stim2,0.388
MM,F,23,6,43,stim1,0.576
MM,F,23,6,44,stim1,0.934
MM,F,23,6,45,stim2,0.602
MM,F,23,6,46,stim1,0.589
MM,F,23,6,47,stim2,0.305
MM,F,23,6,48,stim2,0.458
MM,F,23,6,49,stim1,0.434
MM,F,23,6,50,stim1,0.373
MM,F,23,6,51,stim2,0.896
MM,F,23,6,52,stim2,0.385
MM,F,23,6,53,stim2,0.443
MM,F,23,6,54,stim1,0.812
MM,F,23,6,55,stim2,0.223
MM,F,23,6,56,stim2,0.452
MM,F,23,6,57,stim2,0.371
MM,F,23,6,58,stim1,0.344
MM,F,23,6,59,stim2,0.901
MM,F,23,6,60,stim1,0.82
MM,F,23,6,61,stim1,0.552
MM,F,23,6,62,stim2,0.563
MM,F,23,6,63,stim1,0.44
MM,F,23,6,64,stim1,1.372
MM,F,23,6,65,stim2,0.694
MM,F,23,6,66,stim1,0.501
MM,F,23,6,67,stim2,0.477
MM,F,23,6,68,stim1,0.581
MM,F,23,6,69,stim1,0.482
MM,F,23,6,70,stim2,0.496
MM,F,23,6,71,stim2,0.593
MM,F,23,6,72,stim1,0.643
MM,F,23,6,73,stim2,0.621
MM,F,23,6,74,stim2,0.513
MM,F,23,6,75,stim2,1.462
MM,F,23,6,76,stim2,0.496
MM,F,23,6,77,stim1,0.445
MM,F,23,6,78,stim1,0.32
MM,F,23,6,79,stim2,0.693
MM,F,23,6,80,stim2,0.71
MM,F,23,6,81,stim2,0.619
MM,F,23,6,82,stim2,1.247
MM,F,23,6,83,stim2,0.758
MM,F,23,6,84,stim2,0.661
MM,F,23,6,85,stim2,0.724
MM,F,23,6,86,stim1,0.978
MM,F,23,6,87,stim1,0.584
MM,F,23,6,88,stim1,0.346
MM,F,23,6,89,stim1,1.113
MM,F,23,6,90,stim2,0.661
MM,F,23,6,91,stim1,0.534
MM,F,23,6,92,stim1,0.446
MM,F,23,6,93,stim2,0.405
MM,F,23,6,94,stim2,0.242
MM,F,23,6,95,stim1,0.402
MM,F,23,6,96,stim2,0.43
MM,F,23,6,97,stim1,0.432
MM,F,23,6,98,stim1,0.54
MM,F,23,6,99,stim2,0.912
MM,F,23,6,100,stim1,0.446
MM,F,23,7,1,stim1,0.348
MM,F,23,7,2,stim1,0.684
MM,F,23,7,3,stim1,0.401
MM,F,23,7,4,stim1,0.623
MM,F,23,7,5,stim1,0.991
MM,F,23,7,6,stim2,0.243
MM,F,23,7,7,stim1,0.492
MM,F,23,7,8,stim2,0.412
MM,F,23,7,9,stim2,0.361
MM,F,23,7,10,stim1,0.595
MM,F,23,7,11,stim2,0.47
MM,F,23,7,12,stim1,0.519
MM,F,23,7,13,stim2,0.358
MM,F,23,7,14,stim1,0.443
MM,F,23,7,15,stim2,0.772
MM,F,23,7,16,stim1,0.353
MM,F,23,7,17,stim1,0.344
MM,F,23,7,18,stim1,0.46
MM,F,23,7,19,stim1,0.782
MM,F,23,7,20,stim1,0.4
MM,F,23,7,21,stim2,0.339
MM,F,23,7,22,stim2,0.451
MM,F,23,7,23,stim1,0.338
MM,F,23,7,24,stim1,0.531
MM,F,23,7,25,stim1,0.398
MM,F,23,7,26,stim1,0.5
MM,F,23,7,27,stim2,0.904
MM,F,23,7,28,stim1,0.608
MM,F,23,7,29,stim1,0.445
MM,F,23,7,30,stim1,0.5
MM,F,23,7,31,stim1,1.31
MM,F,23,7,32,stim1,0.57
MM,F,23,7,33,stim2,0.599
MM,F,23,7,34,stim1,0.298
MM,F,23,7,35,stim2,0.297
MM,F,23,7,36,stim2,0.363
MM,F,23,7,37,stim2,0.438
MM,F,23,7,38,stim1,0.432
MM,F,23,7,39,stim1,0.635
MM,F,23,7,40,stim1,0.436
MM,F,23,7,41,stim1,0.351
MM,F,23,7,42,stim1,1.131
MM,F,23,7,43,stim1,0.594
MM,F,23,7,44,stim1,0.483
MM,F,23,7,45,stim1,0.837
MM,F,23,7,46,stim1,0.429
MM,F,23,7,47,stim2,0.455
MM,F,23,7,48,stim2,0.346
MM,F,23,7,49,stim2,0.366
MM,F,23,7,50,stim1,0.482
MM,F,23,7,51,stim1,1.212
MM,F,23,7,52,stim1,0.437
MM,F,23,7,53,stim1,0.441
MM,F,23,7,54,stim1,1.001
MM,F,23,7,55,stim2,0.299
MM,F,23,7,56,stim1,0.771
MM,F,23,7,57,stim2,0.295
MM,F,23,7,58,stim1,0.823
MM,F,23,7,59,stim1,0.539
MM,F,23,7,60,stim1,0.703
MM,F,23,7,61,stim2,0.335
MM,F,23,7,62,stim1,0.348
MM,F,23,7,63,stim1,0.315
MM,F,23,7,64,stim1,0.6
MM,F,23,7,65,stim1,0.485
MM,F,23,7,66,stim1,0.443
MM,F,23,7,67,stim2,0.42
MM,F,23,7,68,stim2,0.329
MM,F,23,7,69,stim2,0.405
MM,F,23,7,70,stim2,0.546
MM,F,23,7,71,stim2,0.454
MM,F,23,7,72,stim1,0.231
MM,F,23,7,73,stim1,0.323
MM,F,23,7,74,stim2,0.296
MM,F,23,7,75,stim2,0.481
MM,F,23,7,76,stim1,0.391
MM,F,23,7,77,stim2,0.475
MM,F,23,7,78,stim1,0.947
MM,F,23,7,79,stim2,0.44
MM,F,23,7,80,stim2,0.661
MM,F,23,7,81,stim1,0.963
MM,F,23,7,82,stim1,0.833
MM,F,23,7,83,stim1,0.617
MM,F,23,7,84,stim1,0.598
MM,F,23,7,85,stim2,2.791
MM,F,23,7,86,stim2,0.356
MM,F,23,7,87,stim1,0.735
MM,F,23,7,88,stim1,0.383
MM,F,23,7,89,stim1,0.945
MM,F,23,7,90,stim2,0.621
MM,F,23,7,91,stim1,0.312
MM,F,23,7,92,stim1,0.329
MM,F,23,7,93,stim1,0.389
MM,F,23,7,94,stim2,0.385
MM,F,23,7,95,stim1,0.581
MM,F,23,7,96,stim1,1.131
MM,F,23,7,97,stim1,0.43
MM,F,23,7,98,stim2,0.608
MM,F,23,7,99,stim2,0.694
MM,F,23,7,100,stim1,0.587
