subj,patient,date,session,part,trial,stim,stim_order,segment,segment_time,pitch,response,rt
12,0,09-May-2018,1,1,1,Sub12_Trial1_0,0,0,0,64.335082,False,0.868
12,0,09-May-2018,1,1,1,Sub12_Trial1_0,0,1,1,25.012194,False,0.868
12,0,09-May-2018,1,1,1,Sub12_Trial1_0,0,2,2,19.462201,False,0.868
12,0,09-May-2018,1,1,1,Sub12_Trial1_0,0,3,3,-2.760596,False,0.868
12,0,09-May-2018,1,1,1,Sub12_Trial1_0,0,4,4,5.243116,False,0.868
12,0,09-May-2018,1,1,1,Sub12_Trial1_0,0,5,5,-16.730048,False,0.868
12,0,09-May-2018,1,1,1,Sub12_Trial1_0,0,6,6,-124.503364,False,0.868
12,0,09-May-2018,1,1,1,Sub12_Trial1_1,1,0,0,7.038557,True,0.868
12,0,09-May-2018,1,1,1,Sub12_Trial1_1,1,1,1,2.453242,True,0.868
12,0,09-May-2018,1,1,1,Sub12_Trial1_1,1,2,2,100.632186,True,0.868
12,0,09-May-2018,1,1,1,Sub12_Trial1_1,1,3,3,-1.389851,True,0.868
12,0,09-May-2018,1,1,1,Sub12_Trial1_1,1,4,4,2.053347,True,0.868
12,0,09-May-2018,1,1,1,Sub12_Trial1_1,1,5,5,152.217477,True,0.868
12,0,09-May-2018,1,1,1,Sub12_Trial1_1,1,6,6,39.381753,True,0.868
12,0,09-May-2018,1,1,2,Sub12_Trial2_0,0,0,0,-39.960153,False,1.201
12,0,09-May-2018,1,1,2,Sub12_Trial2_0,0,1,1,-15.9747,False,1.201
12,0,09-May-2018,1,1,2,Sub12_Trial2_0,0,2,2,68.708502,False,1.201
12,0,09-May-2018,1,1,2,Sub12_Trial2_0,0,3,3,-147.627715,False,1.201
12,0,09-May-2018,1,1,2,Sub12_Trial2_0,0,4,4,-67.767149,False,1.201
12,0,09-May-2018,1,1,2,Sub12_Trial2_0,0,5,5,-105.360249,False,1.201
12,0,09-May-2018,1,1,2,Sub12_Trial2_0,0,6,6,20.899837,False,1.201
12,0,09-May-2018,1,1,2,Sub12_Trial2_1,1,0,0,-58.312375,True,1.201
12,0,09-May-2018,1,1,2,Sub12_Trial2_1,1,1,1,-130.67974,True,1.201
12,0,09-May-2018,1,1,2,Sub12_Trial2_1,1,2,2,-83.105776,True,1.201
12,0,09-May-2018,1,1,2,Sub12_Trial2_1,1,3,3,115.439092,True,1.201
12,0,09-May-2018,1,1,2,Sub12_Trial2_1,1,4,4,-41.435679,True,1.201
12,0,09-May-2018,1,1,2,Sub12_Trial2_1,1,5,5,141.103691,True,1.201
12,0,09-May-2018,1,1,2,Sub12_Trial2_1,1,6,6,8.711059,True,1.201
12,0,09-May-2018,1,1,3,Sub12_Trial3_0,0,0,0,17.480154,True,1.164
12,0,09-May-2018,1,1,3,Sub12_Trial3_0,0,1,1,-63.521198,True,1.164
12,0,09-May-2018,1,1,3,Sub12_Trial3_0,0,2,2,13.253487,True,1.164
12,0,09-May-2018,1,1,3,Sub12_Trial3_0,0,3,3,23.370158,True,1.164
12,0,09-May-2018,1,1,3,Sub12_Trial3_0,0,4,4,164.54898,True,1.164
12,0,09-May-2018,1,1,3,Sub12_Trial3_0,0,5,5,66.734331,True,1.164
12,0,09-May-2018,1,1,3,Sub12_Trial3_0,0,6,6,-23.202349,True,1.164
12,0,09-May-2018,1,1,3,Sub12_Trial3_1,1,0,0,96.211413,False,1.164
12,0,09-May-2018,1,1,3,Sub12_Trial3_1,1,1,1,-53.344532,False,1.164
12,0,09-May-2018,1,1,3,Sub12_Trial3_1,1,2,2,-83.440191,False,1.164
12,0,09-May-2018,1,1,3,Sub12_Trial3_1,1,3,3,79.239801,False,1.164
12,0,09-May-2018,1,1,3,Sub12_Trial3_1,1,4,4,-9.663059,False,1.164
12,0,09-May-2018,1,1,3,Sub12_Trial3_1,1,5,5,-32.530046,False,1.164
12,0,09-May-2018,1,1,3,Sub12_Trial3_1,1,6,6,-48.340773,False,1.164
12,0,09-May-2018,1,1,4,Sub12_Trial4_0,0,0,0,4.049779,False,2.026
12,0,09-May-2018,1,1,4,Sub12_Trial4_0,0,1,1,-94.616793,False,2.026
12,0,09-May-2018,1,1,4,Sub12_Trial4_0,0,2,2,21.282968,False,2.026
12,0,09-May-2018,1,1,4,Sub12_Trial4_0,0,3,3,54.772231,False,2.026
12,0,09-May-2018,1,1,4,Sub12_Trial4_0,0,4,4,138.814032,False,2.026
12,0,09-May-2018,1,1,4,Sub12_Trial4_0,0,5,5,8.691541,False,2.026
12,0,09-May-2018,1,1,4,Sub12_Trial4_0,0,6,6,60.009772,False,2.026
12,0,09-May-2018,1,1,4,Sub12_Trial4_1,1,0,0,-83.426179,True,2.026
12,0,09-May-2018,1,1,4,Sub12_Trial4_1,1,1,1,-39.89248,True,2.026
12,0,09-May-2018,1,1,4,Sub12_Trial4_1,1,2,2,-19.294146,True,2.026
12,0,09-May-2018,1,1,4,Sub12_Trial4_1,1,3,3,-15.424872,True,2.026
12,0,09-May-2018,1,1,4,Sub12_Trial4_1,1,4,4,65.388564,True,2.026
12,0,09-May-2018,1,1,4,Sub12_Trial4_1,1,5,5,-111.067057,True,2.026
12,0,09-May-2018,1,1,4,Sub12_Trial4_1,1,6,6,165.586443,True,2.026
12,0,09-May-2018,1,1,5,Sub12_Trial5_0,0,0,0,44.782023,False,1.289
12,0,09-May-2018,1,1,5,Sub12_Trial5_0,0,1,1,126.775043,False,1.289
12,0,09-May-2018,1,1,5,Sub12_Trial5_0,0,2,2,-109.910205,False,1.289
12,0,09-May-2018,1,1,5,Sub12_Trial5_0,0,3,3,-123.892897,False,1.289
12,0,09-May-2018,1,1,5,Sub12_Trial5_0,0,4,4,109.208462,False,1.289
12,0,09-May-2018,1,1,5,Sub12_Trial5_0,0,5,5,-97.017405,False,1.289
12,0,09-May-2018,1,1,5,Sub12_Trial5_0,0,6,6,81.768487,False,1.289
12,0,09-May-2018,1,1,5,Sub12_Trial5_1,1,0,0,39.199696,True,1.289
12,0,09-May-2018,1,1,5,Sub12_Trial5_1,1,1,1,-23.744629,True,1.289
12,0,09-May-2018,1,1,5,Sub12_Trial5_1,1,2,2,-131.669529,True,1.289
12,0,09-May-2018,1,1,5,Sub12_Trial5_1,1,3,3,96.337986,True,1.289
12,0,09-May-2018,1,1,5,Sub12_Trial5_1,1,4,4,33.143877,True,1.289
12,0,09-May-2018,1,1,5,Sub12_Trial5_1,1,5,5,129.008069,True,1.289
12,0,09-May-2018,1,1,5,Sub12_Trial5_1,1,6,6,-19.368472,True,1.289
12,0,09-May-2018,1,1,6,Sub12_Trial6_0,0,0,0,15.987531,False,1.322
12,0,09-May-2018,1,1,6,Sub12_Trial6_0,0,1,1,11.691964,False,1.322
12,0,09-May-2018,1,1,6,Sub12_Trial6_0,0,2,2,82.237937,False,1.322
12,0,09-May-2018,1,1,6,Sub12_Trial6_0,0,3,3,-117.790263,False,1.322
12,0,09-May-2018,1,1,6,Sub12_Trial6_0,0,4,4,-118.668544,False,1.322
12,0,09-May-2018,1,1,6,Sub12_Trial6_0,0,5,5,77.450641,False,1.322
12,0,09-May-2018,1,1,6,Sub12_Trial6_0,0,6,6,-101.304399,False,1.322
12,0,09-May-2018,1,1,6,Sub12_Trial6_1,1,0,0,-135.276859,True,1.322
12,0,09-May-2018,1,1,6,Sub12_Trial6_1,1,1,1,25.00487,True,1.322
12,0,09-May-2018,1,1,6,Sub12_Trial6_1,1,2,2,114.08098,True,1.322
12,0,09-May-2018,1,1,6,Sub12_Trial6_1,1,3,3,145.498295,True,1.322
12,0,09-May-2018,1,1,6,Sub12_Trial6_1,1,4,4,-84.976978,True,1.322
12,0,09-May-2018,1,1,6,Sub12_Trial6_1,1,5,5,115.808209,True,1.322
12,0,09-May-2018,1,1,6,Sub12_Trial6_1,1,6,6,111.739878,True,1.322
12,0,09-May-2018,1,1,7,Sub12_Trial7_0,0,0,0,48.020852,False,1.483
12,0,09-May-2018,1,1,7,Sub12_Trial7_0,0,1,1,-55.067424,False,1.483
12,0,09-May-2018,1,1,7,Sub12_Trial7_0,0,2,2,127.327815,False,1.483
12,0,09-May-2018,1,1,7,Sub12_Trial7_0,0,3,3,-10.65058,False,1.483
12,0,09-May-2018,1,1,7,Sub12_Trial7_0,0,4,4,-178.606615,False,1.483
12,0,09-May-2018,1,1,7,Sub12_Trial7_0,0,5,5,9.883799,False,1.483
12,0,09-May-2018,1,1,7,Sub12_Trial7_0,0,6,6,-118.020869,False,1.483
12,0,09-May-2018,1,1,7,Sub12_Trial7_1,1,0,0,12.720603,True,1.483
12,0,09-May-2018,1,1,7,Sub12_Trial7_1,1,1,1,-17.890342,True,1.483
12,0,09-May-2018,1,1,7,Sub12_Trial7_1,1,2,2,-14.281353,True,1.483
12,0,09-May-2018,1,1,7,Sub12_Trial7_1,1,3,3,40.1115,True,1.483
12,0,09-May-2018,1,1,7,Sub12_Trial7_1,1,4,4,-36.182772,True,1.483
12,0,09-May-2018,1,1,7,Sub12_Trial7_1,1,5,5,96.198192,True,1.483
12,0,09-May-2018,1,1,7,Sub12_Trial7_1,1,6,6,-16.553607,True,1.483
12,0,09-May-2018,1,1,8,Sub12_Trial8_0,0,0,0,115.935319,False,1.228
12,0,09-May-2018,1,1,8,Sub12_Trial8_0,0,1,1,7.345066,False,1.228
12,0,09-May-2018,1,1,8,Sub12_Trial8_0,0,2,2,2.95262,False,1.228
12,0,09-May-2018,1,1,8,Sub12_Trial8_0,0,3,3,-76.547354,False,1.228
12,0,09-May-2018,1,1,8,Sub12_Trial8_0,0,4,4,-97.44058,False,1.228
12,0,09-May-2018,1,1,8,Sub12_Trial8_0,0,5,5,-41.387659,False,1.228
12,0,09-May-2018,1,1,8,Sub12_Trial8_0,0,6,6,188.899261,False,1.228
12,0,09-May-2018,1,1,8,Sub12_Trial8_1,1,0,0,30.64044,True,1.228
12,0,09-May-2018,1,1,8,Sub12_Trial8_1,1,1,1,-67.589067,True,1.228
12,0,09-May-2018,1,1,8,Sub12_Trial8_1,1,2,2,75.886724,True,1.228
12,0,09-May-2018,1,1,8,Sub12_Trial8_1,1,3,3,-3.319254,True,1.228
12,0,09-May-2018,1,1,8,Sub12_Trial8_1,1,4,4,-144.023771,True,1.228
12,0,09-May-2018,1,1,8,Sub12_Trial8_1,1,5,5,73.957745,True,1.228
12,0,09-May-2018,1,1,8,Sub12_Trial8_1,1,6,6,16.723915,True,1.228
12,0,09-May-2018,1,1,9,Sub12_Trial9_0,0,0,0,42.291522,True,0.92
12,0,09-May-2018,1,1,9,Sub12_Trial9_0,0,1,1,-29.475011,True,0.92
12,0,09-May-2018,1,1,9,Sub12_Trial9_0,0,2,2,-137.028621,True,0.92
12,0,09-May-2018,1,1,9,Sub12_Trial9_0,0,3,3,-123.882218,True,0.92
12,0,09-May-2018,1,1,9,Sub12_Trial9_0,0,4,4,62.830472,True,0.92
12,0,09-May-2018,1,1,9,Sub12_Trial9_0,0,5,5,72.284203,True,0.92
12,0,09-May-2018,1,1,9,Sub12_Trial9_0,0,6,6,80.305995,True,0.92
12,0,09-May-2018,1,1,9,Sub12_Trial9_1,1,0,0,-166.02567,False,0.92
12,0,09-May-2018,1,1,9,Sub12_Trial9_1,1,1,1,-30.909782,False,0.92
12,0,09-May-2018,1,1,9,Sub12_Trial9_1,1,2,2,-100.18222,False,0.92
12,0,09-May-2018,1,1,9,Sub12_Trial9_1,1,3,3,16.911773,False,0.92
12,0,09-May-2018,1,1,9,Sub12_Trial9_1,1,4,4,90.981552,False,0.92
12,0,09-May-2018,1,1,9,Sub12_Trial9_1,1,5,5,28.163436,False,0.92
12,0,09-May-2018,1,1,9,Sub12_Trial9_1,1,6,6,-74.61789,False,0.92
12,0,09-May-2018,1,1,10,Sub12_Trial10_0,0,0,0,-7.919992,True,0.997
12,0,09-May-2018,1,1,10,Sub12_Trial10_0,0,1,1,-27.337581,True,0.997
12,0,09-May-2018,1,1,10,Sub12_Trial10_0,0,2,2,63.512801,True,0.997
12,0,09-May-2018,1,1,10,Sub12_Trial10_0,0,3,3,111.05521,True,0.997
12,0,09-May-2018,1,1,10,Sub12_Trial10_0,0,4,4,-50.087949,True,0.997
12,0,09-May-2018,1,1,10,Sub12_Trial10_0,0,5,5,25.07863,True,0.997
12,0,09-May-2018,1,1,10,Sub12_Trial10_0,0,6,6,-78.688729,True,0.997
12,0,09-May-2018,1,1,10,Sub12_Trial10_1,1,0,0,-106.672097,False,0.997
12,0,09-May-2018,1,1,10,Sub12_Trial10_1,1,1,1,-12.215497,False,0.997
12,0,09-May-2018,1,1,10,Sub12_Trial10_1,1,2,2,42.072204,False,0.997
12,0,09-May-2018,1,1,10,Sub12_Trial10_1,1,3,3,-114.880301,False,0.997
12,0,09-May-2018,1,1,10,Sub12_Trial10_1,1,4,4,-162.613457,False,0.997
12,0,09-May-2018,1,1,10,Sub12_Trial10_1,1,5,5,-11.148452,False,0.997
12,0,09-May-2018,1,1,10,Sub12_Trial10_1,1,6,6,66.910527,False,0.997
12,0,09-May-2018,1,1,11,Sub12_Trial11_0,0,0,0,28.041055,True,0.676
12,0,09-May-2018,1,1,11,Sub12_Trial11_0,0,1,1,-110.55835,True,0.676
12,0,09-May-2018,1,1,11,Sub12_Trial11_0,0,2,2,15.839502,True,0.676
12,0,09-May-2018,1,1,11,Sub12_Trial11_0,0,3,3,52.824707,True,0.676
12,0,09-May-2018,1,1,11,Sub12_Trial11_0,0,4,4,-78.770243,True,0.676
12,0,09-May-2018,1,1,11,Sub12_Trial11_0,0,5,5,105.807133,True,0.676
12,0,09-May-2018,1,1,11,Sub12_Trial11_0,0,6,6,114.961266,True,0.676
12,0,09-May-2018,1,1,11,Sub12_Trial11_1,1,0,0,33.787378,False,0.676
12,0,09-May-2018,1,1,11,Sub12_Trial11_1,1,1,1,-31.171553,False,0.676
12,0,09-May-2018,1,1,11,Sub12_Trial11_1,1,2,2,-108.869519,False,0.676
12,0,09-May-2018,1,1,11,Sub12_Trial11_1,1,3,3,63.598228,False,0.676
12,0,09-May-2018,1,1,11,Sub12_Trial11_1,1,4,4,79.264766,False,0.676
12,0,09-May-2018,1,1,11,Sub12_Trial11_1,1,5,5,-81.715595,False,0.676
12,0,09-May-2018,1,1,11,Sub12_Trial11_1,1,6,6,108.166755,False,0.676
12,0,09-May-2018,1,1,12,Sub12_Trial12_0,0,0,0,-79.336658,True,0.604
12,0,09-May-2018,1,1,12,Sub12_Trial12_0,0,1,1,29.042972,True,0.604
12,0,09-May-2018,1,1,12,Sub12_Trial12_0,0,2,2,49.991407,True,0.604
12,0,09-May-2018,1,1,12,Sub12_Trial12_0,0,3,3,-23.149141,True,0.604
12,0,09-May-2018,1,1,12,Sub12_Trial12_0,0,4,4,0.975125,True,0.604
12,0,09-May-2018,1,1,12,Sub12_Trial12_0,0,5,5,146.961214,True,0.604
12,0,09-May-2018,1,1,12,Sub12_Trial12_0,0,6,6,26.655983,True,0.604
12,0,09-May-2018,1,1,12,Sub12_Trial12_1,1,0,0,2.86107,False,0.604
12,0,09-May-2018,1,1,12,Sub12_Trial12_1,1,1,1,44.553959,False,0.604
12,0,09-May-2018,1,1,12,Sub12_Trial12_1,1,2,2,63.211006,False,0.604
12,0,09-May-2018,1,1,12,Sub12_Trial12_1,1,3,3,-10.964196,False,0.604
12,0,09-May-2018,1,1,12,Sub12_Trial12_1,1,4,4,55.619287,False,0.604
12,0,09-May-2018,1,1,12,Sub12_Trial12_1,1,5,5,-129.549096,False,0.604
12,0,09-May-2018,1,1,12,Sub12_Trial12_1,1,6,6,113.403185,False,0.604
12,0,09-May-2018,1,1,13,Sub12_Trial13_0,0,0,0,25.793556,False,0.998
12,0,09-May-2018,1,1,13,Sub12_Trial13_0,0,1,1,-1.356446,False,0.998
12,0,09-May-2018,1,1,13,Sub12_Trial13_0,0,2,2,72.888322,False,0.998
12,0,09-May-2018,1,1,13,Sub12_Trial13_0,0,3,3,-113.067949,False,0.998
12,0,09-May-2018,1,1,13,Sub12_Trial13_0,0,4,4,-75.174667,False,0.998
12,0,09-May-2018,1,1,13,Sub12_Trial13_0,0,5,5,-9.984537,False,0.998
12,0,09-May-2018,1,1,13,Sub12_Trial13_0,0,6,6,-7.892354,False,0.998
12,0,09-May-2018,1,1,13,Sub12_Trial13_1,1,0,0,-45.439184,True,0.998
12,0,09-May-2018,1,1,13,Sub12_Trial13_1,1,1,1,-148.219815,True,0.998
12,0,09-May-2018,1,1,13,Sub12_Trial13_1,1,2,2,-25.943362,True,0.998
12,0,09-May-2018,1,1,13,Sub12_Trial13_1,1,3,3,-112.649448,True,0.998
12,0,09-May-2018,1,1,13,Sub12_Trial13_1,1,4,4,-18.469652,True,0.998
12,0,09-May-2018,1,1,13,Sub12_Trial13_1,1,5,5,50.412997,True,0.998
12,0,09-May-2018,1,1,13,Sub12_Trial13_1,1,6,6,52.627266,True,0.998
12,0,09-May-2018,1,1,14,Sub12_Trial14_0,0,0,0,121.760459,False,1.188
12,0,09-May-2018,1,1,14,Sub12_Trial14_0,0,1,1,69.492325,False,1.188
12,0,09-May-2018,1,1,14,Sub12_Trial14_0,0,2,2,-161.609017,False,1.188
12,0,09-May-2018,1,1,14,Sub12_Trial14_0,0,3,3,-25.415575,False,1.188
12,0,09-May-2018,1,1,14,Sub12_Trial14_0,0,4,4,-41.20683,False,1.188
12,0,09-May-2018,1,1,14,Sub12_Trial14_0,0,5,5,-5.992195,False,1.188
12,0,09-May-2018,1,1,14,Sub12_Trial14_0,0,6,6,36.74376,False,1.188
12,0,09-May-2018,1,1,14,Sub12_Trial14_1,1,0,0,9.837788,True,1.188
12,0,09-May-2018,1,1,14,Sub12_Trial14_1,1,1,1,36.827066,True,1.188
12,0,09-May-2018,1,1,14,Sub12_Trial14_1,1,2,2,61.894236,True,1.188
12,0,09-May-2018,1,1,14,Sub12_Trial14_1,1,3,3,79.447948,True,1.188
12,0,09-May-2018,1,1,14,Sub12_Trial14_1,1,4,4,-132.656214,True,1.188
12,0,09-May-2018,1,1,14,Sub12_Trial14_1,1,5,5,94.022149,True,1.188
12,0,09-May-2018,1,1,14,Sub12_Trial14_1,1,6,6,-140.022574,True,1.188
12,0,09-May-2018,1,1,15,Sub12_Trial15_0,0,0,0,-88.170925,False,0.958
12,0,09-May-2018,1,1,15,Sub12_Trial15_0,0,1,1,75.400485,False,0.958
12,0,09-May-2018,1,1,15,Sub12_Trial15_0,0,2,2,-116.876334,False,0.958
12,0,09-May-2018,1,1,15,Sub12_Trial15_0,0,3,3,-112.79365,False,0.958
12,0,09-May-2018,1,1,15,Sub12_Trial15_0,0,4,4,7.711842,False,0.958
12,0,09-May-2018,1,1,15,Sub12_Trial15_0,0,5,5,-65.178534,False,0.958
12,0,09-May-2018,1,1,15,Sub12_Trial15_0,0,6,6,-130.492344,False,0.958
12,0,09-May-2018,1,1,15,Sub12_Trial15_1,1,0,0,162.461951,True,0.958
12,0,09-May-2018,1,1,15,Sub12_Trial15_1,1,1,1,25.912894,True,0.958
12,0,09-May-2018,1,1,15,Sub12_Trial15_1,1,2,2,-83.743984,True,0.958
12,0,09-May-2018,1,1,15,Sub12_Trial15_1,1,3,3,-34.135495,True,0.958
12,0,09-May-2018,1,1,15,Sub12_Trial15_1,1,4,4,-39.205571,True,0.958
12,0,09-May-2018,1,1,15,Sub12_Trial15_1,1,5,5,96.235281,True,0.958
12,0,09-May-2018,1,1,15,Sub12_Trial15_1,1,6,6,-92.41843,True,0.958
12,0,09-May-2018,1,1,16,Sub12_Trial16_0,0,0,0,-44.009123,True,0.915
12,0,09-May-2018,1,1,16,Sub12_Trial16_0,0,1,1,-6.545027,True,0.915
12,0,09-May-2018,1,1,16,Sub12_Trial16_0,0,2,2,-28.539076,True,0.915
12,0,09-May-2018,1,1,16,Sub12_Trial16_0,0,3,3,-168.915642,True,0.915
12,0,09-May-2018,1,1,16,Sub12_Trial16_0,0,4,4,176.228314,True,0.915
12,0,09-May-2018,1,1,16,Sub12_Trial16_0,0,5,5,-70.969767,True,0.915
12,0,09-May-2018,1,1,16,Sub12_Trial16_0,0,6,6,-107.360599,True,0.915
12,0,09-May-2018,1,1,16,Sub12_Trial16_1,1,0,0,100.725975,False,0.915
12,0,09-May-2018,1,1,16,Sub12_Trial16_1,1,1,1,-22.878601,False,0.915
12,0,09-May-2018,1,1,16,Sub12_Trial16_1,1,2,2,-105.161423,False,0.915
12,0,09-May-2018,1,1,16,Sub12_Trial16_1,1,3,3,-52.734985,False,0.915
12,0,09-May-2018,1,1,16,Sub12_Trial16_1,1,4,4,-53.742278,False,0.915
12,0,09-May-2018,1,1,16,Sub12_Trial16_1,1,5,5,19.982417,False,0.915
12,0,09-May-2018,1,1,16,Sub12_Trial16_1,1,6,6,-36.687219,False,0.915
12,0,09-May-2018,1,1,17,Sub12_Trial17_0,0,0,0,-18.287898,True,0.655
12,0,09-May-2018,1,1,17,Sub12_Trial17_0,0,1,1,17.531037,True,0.655
12,0,09-May-2018,1,1,17,Sub12_Trial17_0,0,2,2,101.480608,True,0.655
12,0,09-May-2018,1,1,17,Sub12_Trial17_0,0,3,3,60.839828,True,0.655
12,0,09-May-2018,1,1,17,Sub12_Trial17_0,0,4,4,-77.790369,True,0.655
12,0,09-May-2018,1,1,17,Sub12_Trial17_0,0,5,5,31.856387,True,0.655
12,0,09-May-2018,1,1,17,Sub12_Trial17_0,0,6,6,157.632686,True,0.655
12,0,09-May-2018,1,1,17,Sub12_Trial17_1,1,0,0,-12.571075,False,0.655
12,0,09-May-2018,1,1,17,Sub12_Trial17_1,1,1,1,-53.747314,False,0.655
12,0,09-May-2018,1,1,17,Sub12_Trial17_1,1,2,2,67.671444,False,0.655
12,0,09-May-2018,1,1,17,Sub12_Trial17_1,1,3,3,84.636923,False,0.655
12,0,09-May-2018,1,1,17,Sub12_Trial17_1,1,4,4,11.564172,False,0.655
12,0,09-May-2018,1,1,17,Sub12_Trial17_1,1,5,5,18.559069,False,0.655
12,0,09-May-2018,1,1,17,Sub12_Trial17_1,1,6,6,-41.361664,False,0.655
12,0,09-May-2018,1,1,18,Sub12_Trial18_0,0,0,0,142.848647,False,1.503
12,0,09-May-2018,1,1,18,Sub12_Trial18_0,0,1,1,-5.575851,False,1.503
12,0,09-May-2018,1,1,18,Sub12_Trial18_0,0,2,2,-48.106697,False,1.503
12,0,09-May-2018,1,1,18,Sub12_Trial18_0,0,3,3,55.630574,False,1.503
12,0,09-May-2018,1,1,18,Sub12_Trial18_0,0,4,4,106.697883,False,1.503
12,0,09-May-2018,1,1,18,Sub12_Trial18_0,0,5,5,86.446977,False,1.503
12,0,09-May-2018,1,1,18,Sub12_Trial18_0,0,6,6,45.805977,False,1.503
12,0,09-May-2018,1,1,18,Sub12_Trial18_1,1,0,0,52.446619,True,1.503
12,0,09-May-2018,1,1,18,Sub12_Trial18_1,1,1,1,56.533912,True,1.503
12,0,09-May-2018,1,1,18,Sub12_Trial18_1,1,2,2,18.620358,True,1.503
12,0,09-May-2018,1,1,18,Sub12_Trial18_1,1,3,3,76.136344,True,1.503
12,0,09-May-2018,1,1,18,Sub12_Trial18_1,1,4,4,150.668182,True,1.503
12,0,09-May-2018,1,1,18,Sub12_Trial18_1,1,5,5,-6.85115,True,1.503
12,0,09-May-2018,1,1,18,Sub12_Trial18_1,1,6,6,43.337751,True,1.503
12,0,09-May-2018,1,1,19,Sub12_Trial19_0,0,0,0,37.65129,False,1.001
12,0,09-May-2018,1,1,19,Sub12_Trial19_0,0,1,1,-152.728823,False,1.001
12,0,09-May-2018,1,1,19,Sub12_Trial19_0,0,2,2,-47.77189,False,1.001
12,0,09-May-2018,1,1,19,Sub12_Trial19_0,0,3,3,-134.928381,False,1.001
12,0,09-May-2018,1,1,19,Sub12_Trial19_0,0,4,4,101.647157,False,1.001
12,0,09-May-2018,1,1,19,Sub12_Trial19_0,0,5,5,-33.989809,False,1.001
12,0,09-May-2018,1,1,19,Sub12_Trial19_0,0,6,6,-126.871152,False,1.001
12,0,09-May-2018,1,1,19,Sub12_Trial19_1,1,0,0,99.122192,True,1.001
12,0,09-May-2018,1,1,19,Sub12_Trial19_1,1,1,1,-47.419316,True,1.001
12,0,09-May-2018,1,1,19,Sub12_Trial19_1,1,2,2,104.093924,True,1.001
12,0,09-May-2018,1,1,19,Sub12_Trial19_1,1,3,3,53.17861,True,1.001
12,0,09-May-2018,1,1,19,Sub12_Trial19_1,1,4,4,-7.761513,True,1.001
12,0,09-May-2018,1,1,19,Sub12_Trial19_1,1,5,5,-26.857864,True,1.001
12,0,09-May-2018,1,1,19,Sub12_Trial19_1,1,6,6,64.56141,True,1.001
12,0,09-May-2018,1,1,20,Sub12_Trial20_0,0,0,0,-9.222833,False,0.719
12,0,09-May-2018,1,1,20,Sub12_Trial20_0,0,1,1,-189.12852,False,0.719
12,0,09-May-2018,1,1,20,Sub12_Trial20_0,0,2,2,30.676214,False,0.719
12,0,09-May-2018,1,1,20,Sub12_Trial20_0,0,3,3,-87.061339,False,0.719
12,0,09-May-2018,1,1,20,Sub12_Trial20_0,0,4,4,44.261934,False,0.719
12,0,09-May-2018,1,1,20,Sub12_Trial20_0,0,5,5,-115.601238,False,0.719
12,0,09-May-2018,1,1,20,Sub12_Trial20_0,0,6,6,6.923123,False,0.719
12,0,09-May-2018,1,1,20,Sub12_Trial20_1,1,0,0,-22.585389,True,0.719
12,0,09-May-2018,1,1,20,Sub12_Trial20_1,1,1,1,0.261711,True,0.719
12,0,09-May-2018,1,1,20,Sub12_Trial20_1,1,2,2,-12.313549,True,0.719
12,0,09-May-2018,1,1,20,Sub12_Trial20_1,1,3,3,-11.369886,True,0.719
12,0,09-May-2018,1,1,20,Sub12_Trial20_1,1,4,4,68.704929,True,0.719
12,0,09-May-2018,1,1,20,Sub12_Trial20_1,1,5,5,-38.867549,True,0.719
12,0,09-May-2018,1,1,20,Sub12_Trial20_1,1,6,6,23.508589,True,0.719
12,0,09-May-2018,1,1,21,Sub12_Trial21_0,0,0,0,-26.176889,True,0.718
12,0,09-May-2018,1,1,21,Sub12_Trial21_0,0,1,1,-7.000224,True,0.718
12,0,09-May-2018,1,1,21,Sub12_Trial21_0,0,2,2,-70.189088,True,0.718
12,0,09-May-2018,1,1,21,Sub12_Trial21_0,0,3,3,146.829105,True,0.718
12,0,09-May-2018,1,1,21,Sub12_Trial21_0,0,4,4,-54.714499,True,0.718
12,0,09-May-2018,1,1,21,Sub12_Trial21_0,0,5,5,73.082137,True,0.718
12,0,09-May-2018,1,1,21,Sub12_Trial21_0,0,6,6,-35.007523,True,0.718
12,0,09-May-2018,1,1,21,Sub12_Trial21_1,1,0,0,18.730423,False,0.718
12,0,09-May-2018,1,1,21,Sub12_Trial21_1,1,1,1,-71.094063,False,0.718
12,0,09-May-2018,1,1,21,Sub12_Trial21_1,1,2,2,-83.313929,False,0.718
12,0,09-May-2018,1,1,21,Sub12_Trial21_1,1,3,3,79.342942,False,0.718
12,0,09-May-2018,1,1,21,Sub12_Trial21_1,1,4,4,-23.38846,False,0.718
12,0,09-May-2018,1,1,21,Sub12_Trial21_1,1,5,5,-104.321963,False,0.718
12,0,09-May-2018,1,1,21,Sub12_Trial21_1,1,6,6,-49.477461,False,0.718
12,0,09-May-2018,1,1,22,Sub12_Trial22_0,0,0,0,-28.741752,True,0.53
12,0,09-May-2018,1,1,22,Sub12_Trial22_0,0,1,1,153.455773,True,0.53
12,0,09-May-2018,1,1,22,Sub12_Trial22_0,0,2,2,-138.277499,True,0.53
12,0,09-May-2018,1,1,22,Sub12_Trial22_0,0,3,3,44.4993,True,0.53
12,0,09-May-2018,1,1,22,Sub12_Trial22_0,0,4,4,5.196683,True,0.53
12,0,09-May-2018,1,1,22,Sub12_Trial22_0,0,5,5,83.883117,True,0.53
12,0,09-May-2018,1,1,22,Sub12_Trial22_0,0,6,6,-75.110724,True,0.53
12,0,09-May-2018,1,1,22,Sub12_Trial22_1,1,0,0,92.727548,False,0.53
12,0,09-May-2018,1,1,22,Sub12_Trial22_1,1,1,1,30.908608,False,0.53
12,0,09-May-2018,1,1,22,Sub12_Trial22_1,1,2,2,-25.065709,False,0.53
12,0,09-May-2018,1,1,22,Sub12_Trial22_1,1,3,3,-137.266409,False,0.53
12,0,09-May-2018,1,1,22,Sub12_Trial22_1,1,4,4,-13.845292,False,0.53
12,0,09-May-2018,1,1,22,Sub12_Trial22_1,1,5,5,-78.540719,False,0.53
12,0,09-May-2018,1,1,22,Sub12_Trial22_1,1,6,6,63.976555,False,0.53
12,0,09-May-2018,1,1,23,Sub12_Trial23_0,0,0,0,29.585375,True,0.823
12,0,09-May-2018,1,1,23,Sub12_Trial23_0,0,1,1,-72.545775,True,0.823
12,0,09-May-2018,1,1,23,Sub12_Trial23_0,0,2,2,-68.395401,True,0.823
12,0,09-May-2018,1,1,23,Sub12_Trial23_0,0,3,3,150.624709,True,0.823
12,0,09-May-2018,1,1,23,Sub12_Trial23_0,0,4,4,71.306011,True,0.823
12,0,09-May-2018,1,1,23,Sub12_Trial23_0,0,5,5,34.155338,True,0.823
12,0,09-May-2018,1,1,23,Sub12_Trial23_0,0,6,6,31.693158,True,0.823
12,0,09-May-2018,1,1,23,Sub12_Trial23_1,1,0,0,-44.612659,False,0.823
12,0,09-May-2018,1,1,23,Sub12_Trial23_1,1,1,1,4.440448,False,0.823
12,0,09-May-2018,1,1,23,Sub12_Trial23_1,1,2,2,-0.08609,False,0.823
12,0,09-May-2018,1,1,23,Sub12_Trial23_1,1,3,3,99.521284,False,0.823
12,0,09-May-2018,1,1,23,Sub12_Trial23_1,1,4,4,-58.056475,False,0.823
12,0,09-May-2018,1,1,23,Sub12_Trial23_1,1,5,5,-102.615866,False,0.823
12,0,09-May-2018,1,1,23,Sub12_Trial23_1,1,6,6,31.620708,False,0.823
12,0,09-May-2018,1,1,24,Sub12_Trial24_0,0,0,0,101.232576,True,0.643
12,0,09-May-2018,1,1,24,Sub12_Trial24_0,0,1,1,43.270803,True,0.643
12,0,09-May-2018,1,1,24,Sub12_Trial24_0,0,2,2,56.512664,True,0.643
12,0,09-May-2018,1,1,24,Sub12_Trial24_0,0,3,3,36.683162,True,0.643
12,0,09-May-2018,1,1,24,Sub12_Trial24_0,0,4,4,-45.848314,True,0.643
12,0,09-May-2018,1,1,24,Sub12_Trial24_0,0,5,5,80.617567,True,0.643
12,0,09-May-2018,1,1,24,Sub12_Trial24_0,0,6,6,-10.805308,True,0.643
12,0,09-May-2018,1,1,24,Sub12_Trial24_1,1,0,0,104.36442,False,0.643
12,0,09-May-2018,1,1,24,Sub12_Trial24_1,1,1,1,32.702348,False,0.643
12,0,09-May-2018,1,1,24,Sub12_Trial24_1,1,2,2,32.014209,False,0.643
12,0,09-May-2018,1,1,24,Sub12_Trial24_1,1,3,3,-183.858445,False,0.643
12,0,09-May-2018,1,1,24,Sub12_Trial24_1,1,4,4,-21.104228,False,0.643
12,0,09-May-2018,1,1,24,Sub12_Trial24_1,1,5,5,-108.864865,False,0.643
12,0,09-May-2018,1,1,24,Sub12_Trial24_1,1,6,6,84.081039,False,0.643
12,0,09-May-2018,1,1,25,Sub12_Trial25_0,0,0,0,11.590295,False,0.982
12,0,09-May-2018,1,1,25,Sub12_Trial25_0,0,1,1,59.41645,False,0.982
12,0,09-May-2018,1,1,25,Sub12_Trial25_0,0,2,2,-49.507678,False,0.982
12,0,09-May-2018,1,1,25,Sub12_Trial25_0,0,3,3,-20.66084,False,0.982
12,0,09-May-2018,1,1,25,Sub12_Trial25_0,0,4,4,8.804185,False,0.982
12,0,09-May-2018,1,1,25,Sub12_Trial25_0,0,5,5,49.838509,False,0.982
12,0,09-May-2018,1,1,25,Sub12_Trial25_0,0,6,6,-125.159969,False,0.982
12,0,09-May-2018,1,1,25,Sub12_Trial25_1,1,0,0,100.506983,True,0.982
12,0,09-May-2018,1,1,25,Sub12_Trial25_1,1,1,1,-7.997679,True,0.982
12,0,09-May-2018,1,1,25,Sub12_Trial25_1,1,2,2,93.51367,True,0.982
12,0,09-May-2018,1,1,25,Sub12_Trial25_1,1,3,3,-193.467723,True,0.982
12,0,09-May-2018,1,1,25,Sub12_Trial25_1,1,4,4,93.136225,True,0.982
12,0,09-May-2018,1,1,25,Sub12_Trial25_1,1,5,5,19.027961,True,0.982
12,0,09-May-2018,1,1,25,Sub12_Trial25_1,1,6,6,19.768043,True,0.982
12,0,09-May-2018,1,1,26,Sub12_Trial26_0,0,0,0,168.966744,False,0.696
12,0,09-May-2018,1,1,26,Sub12_Trial26_0,0,1,1,87.559451,False,0.696
12,0,09-May-2018,1,1,26,Sub12_Trial26_0,0,2,2,-84.936846,False,0.696
12,0,09-May-2018,1,1,26,Sub12_Trial26_0,0,3,3,8.527681,False,0.696
12,0,09-May-2018,1,1,26,Sub12_Trial26_0,0,4,4,95.059516,False,0.696
12,0,09-May-2018,1,1,26,Sub12_Trial26_0,0,5,5,-88.818438,False,0.696
12,0,09-May-2018,1,1,26,Sub12_Trial26_0,0,6,6,-30.026174,False,0.696
12,0,09-May-2018,1,1,26,Sub12_Trial26_1,1,0,0,75.947854,True,0.696
12,0,09-May-2018,1,1,26,Sub12_Trial26_1,1,1,1,-175.923182,True,0.696
12,0,09-May-2018,1,1,26,Sub12_Trial26_1,1,2,2,-78.580949,True,0.696
12,0,09-May-2018,1,1,26,Sub12_Trial26_1,1,3,3,-63.210528,True,0.696
12,0,09-May-2018,1,1,26,Sub12_Trial26_1,1,4,4,94.024427,True,0.696
12,0,09-May-2018,1,1,26,Sub12_Trial26_1,1,5,5,102.396968,True,0.696
12,0,09-May-2018,1,1,26,Sub12_Trial26_1,1,6,6,146.050691,True,0.696
12,0,09-May-2018,1,1,27,Sub12_Trial27_0,0,0,0,-69.745131,True,0.823
12,0,09-May-2018,1,1,27,Sub12_Trial27_0,0,1,1,52.417742,True,0.823
12,0,09-May-2018,1,1,27,Sub12_Trial27_0,0,2,2,15.546904,True,0.823
12,0,09-May-2018,1,1,27,Sub12_Trial27_0,0,3,3,-56.903788,True,0.823
12,0,09-May-2018,1,1,27,Sub12_Trial27_0,0,4,4,-126.136088,True,0.823
12,0,09-May-2018,1,1,27,Sub12_Trial27_0,0,5,5,17.235901,True,0.823
12,0,09-May-2018,1,1,27,Sub12_Trial27_0,0,6,6,17.799994,True,0.823
12,0,09-May-2018,1,1,27,Sub12_Trial27_1,1,0,0,68.507455,False,0.823
12,0,09-May-2018,1,1,27,Sub12_Trial27_1,1,1,1,-14.311482,False,0.823
12,0,09-May-2018,1,1,27,Sub12_Trial27_1,1,2,2,-116.997586,False,0.823
12,0,09-May-2018,1,1,27,Sub12_Trial27_1,1,3,3,-60.156117,False,0.823
12,0,09-May-2018,1,1,27,Sub12_Trial27_1,1,4,4,115.581564,False,0.823
12,0,09-May-2018,1,1,27,Sub12_Trial27_1,1,5,5,-60.850842,False,0.823
12,0,09-May-2018,1,1,27,Sub12_Trial27_1,1,6,6,-37.169672,False,0.823
12,0,09-May-2018,1,1,28,Sub12_Trial28_0,0,0,0,-31.433045,False,1.567
12,0,09-May-2018,1,1,28,Sub12_Trial28_0,0,1,1,-175.769745,False,1.567
12,0,09-May-2018,1,1,28,Sub12_Trial28_0,0,2,2,53.42325,False,1.567
12,0,09-May-2018,1,1,28,Sub12_Trial28_0,0,3,3,113.026981,False,1.567
12,0,09-May-2018,1,1,28,Sub12_Trial28_0,0,4,4,-132.78362,False,1.567
12,0,09-May-2018,1,1,28,Sub12_Trial28_0,0,5,5,168.989105,False,1.567
12,0,09-May-2018,1,1,28,Sub12_Trial28_0,0,6,6,-53.393972,False,1.567
12,0,09-May-2018,1,1,28,Sub12_Trial28_1,1,0,0,-189.382476,True,1.567
12,0,09-May-2018,1,1,28,Sub12_Trial28_1,1,1,1,-35.392749,True,1.567
12,0,09-May-2018,1,1,28,Sub12_Trial28_1,1,2,2,128.446636,True,1.567
12,0,09-May-2018,1,1,28,Sub12_Trial28_1,1,3,3,-63.439009,True,1.567
12,0,09-May-2018,1,1,28,Sub12_Trial28_1,1,4,4,-7.874682,True,1.567
12,0,09-May-2018,1,1,28,Sub12_Trial28_1,1,5,5,58.356569,True,1.567
12,0,09-May-2018,1,1,28,Sub12_Trial28_1,1,6,6,44.974646,True,1.567
12,0,09-May-2018,1,1,29,Sub12_Trial29_0,0,0,0,8.002142,True,3.042
12,0,09-May-2018,1,1,29,Sub12_Trial29_0,0,1,1,-73.325747,True,3.042
12,0,09-May-2018,1,1,29,Sub12_Trial29_0,0,2,2,22.874665,True,3.042
12,0,09-May-2018,1,1,29,Sub12_Trial29_0,0,3,3,-9.433159,True,3.042
12,0,09-May-2018,1,1,29,Sub12_Trial29_0,0,4,4,-100.173906,True,3.042
12,0,09-May-2018,1,1,29,Sub12_Trial29_0,0,5,5,21.368699,True,3.042
12,0,09-May-2018,1,1,29,Sub12_Trial29_0,0,6,6,119.13538,True,3.042
12,0,09-May-2018,1,1,29,Sub12_Trial29_1,1,0,0,103.750606,False,3.042
12,0,09-May-2018,1,1,29,Sub12_Trial29_1,1,1,1,127.750691,False,3.042
12,0,09-May-2018,1,1,29,Sub12_Trial29_1,1,2,2,26.548196,False,3.042
12,0,09-May-2018,1,1,29,Sub12_Trial29_1,1,3,3,90.27542,False,3.042
12,0,09-May-2018,1,1,29,Sub12_Trial29_1,1,4,4,-73.960019,False,3.042
12,0,09-May-2018,1,1,29,Sub12_Trial29_1,1,5,5,8.442937,False,3.042
12,0,09-May-2018,1,1,29,Sub12_Trial29_1,1,6,6,-182.710946,False,3.042
12,0,09-May-2018,1,1,30,Sub12_Trial30_0,0,0,0,-156.089566,True,0.522
12,0,09-May-2018,1,1,30,Sub12_Trial30_0,0,1,1,101.108525,True,0.522
12,0,09-May-2018,1,1,30,Sub12_Trial30_0,0,2,2,91.973191,True,0.522
12,0,09-May-2018,1,1,30,Sub12_Trial30_0,0,3,3,-32.650979,True,0.522
12,0,09-May-2018,1,1,30,Sub12_Trial30_0,0,4,4,83.742129,True,0.522
12,0,09-May-2018,1,1,30,Sub12_Trial30_0,0,5,5,163.946861,True,0.522
12,0,09-May-2018,1,1,30,Sub12_Trial30_0,0,6,6,23.736678,True,0.522
12,0,09-May-2018,1,1,30,Sub12_Trial30_1,1,0,0,56.843412,False,0.522
12,0,09-May-2018,1,1,30,Sub12_Trial30_1,1,1,1,160.506154,False,0.522
12,0,09-May-2018,1,1,30,Sub12_Trial30_1,1,2,2,81.817336,False,0.522
12,0,09-May-2018,1,1,30,Sub12_Trial30_1,1,3,3,80.229385,False,0.522
12,0,09-May-2018,1,1,30,Sub12_Trial30_1,1,4,4,101.961614,False,0.522
12,0,09-May-2018,1,1,30,Sub12_Trial30_1,1,5,5,-19.585384,False,0.522
12,0,09-May-2018,1,1,30,Sub12_Trial30_1,1,6,6,17.202385,False,0.522
12,0,09-May-2018,1,1,31,Sub12_Trial31_0,0,0,0,-76.924654,True,0.786
12,0,09-May-2018,1,1,31,Sub12_Trial31_0,0,1,1,23.844115,True,0.786
12,0,09-May-2018,1,1,31,Sub12_Trial31_0,0,2,2,-112.816976,True,0.786
12,0,09-May-2018,1,1,31,Sub12_Trial31_0,0,3,3,-39.73606,True,0.786
12,0,09-May-2018,1,1,31,Sub12_Trial31_0,0,4,4,39.872085,True,0.786
12,0,09-May-2018,1,1,31,Sub12_Trial31_0,0,5,5,118.518673,True,0.786
12,0,09-May-2018,1,1,31,Sub12_Trial31_0,0,6,6,19.880694,True,0.786
12,0,09-May-2018,1,1,31,Sub12_Trial31_1,1,0,0,131.946608,False,0.786
12,0,09-May-2018,1,1,31,Sub12_Trial31_1,1,1,1,22.980031,False,0.786
12,0,09-May-2018,1,1,31,Sub12_Trial31_1,1,2,2,59.676304,False,0.786
12,0,09-May-2018,1,1,31,Sub12_Trial31_1,1,3,3,62.570334,False,0.786
12,0,09-May-2018,1,1,31,Sub12_Trial31_1,1,4,4,-8.579591,False,0.786
12,0,09-May-2018,1,1,31,Sub12_Trial31_1,1,5,5,-61.632637,False,0.786
12,0,09-May-2018,1,1,31,Sub12_Trial31_1,1,6,6,-190.257929,False,0.786
12,0,09-May-2018,1,1,32,Sub12_Trial32_0,0,0,0,83.739217,True,1.987
12,0,09-May-2018,1,1,32,Sub12_Trial32_0,0,1,1,51.83093,True,1.987
12,0,09-May-2018,1,1,32,Sub12_Trial32_0,0,2,2,-72.944123,True,1.987
12,0,09-May-2018,1,1,32,Sub12_Trial32_0,0,3,3,44.074334,True,1.987
12,0,09-May-2018,1,1,32,Sub12_Trial32_0,0,4,4,-155.116893,True,1.987
12,0,09-May-2018,1,1,32,Sub12_Trial32_0,0,5,5,-34.908448,True,1.987
12,0,09-May-2018,1,1,32,Sub12_Trial32_0,0,6,6,121.11999,True,1.987
12,0,09-May-2018,1,1,32,Sub12_Trial32_1,1,0,0,1.745378,False,1.987
12,0,09-May-2018,1,1,32,Sub12_Trial32_1,1,1,1,24.284801,False,1.987
12,0,09-May-2018,1,1,32,Sub12_Trial32_1,1,2,2,97.727396,False,1.987
12,0,09-May-2018,1,1,32,Sub12_Trial32_1,1,3,3,36.092794,False,1.987
12,0,09-May-2018,1,1,32,Sub12_Trial32_1,1,4,4,-45.821966,False,1.987
12,0,09-May-2018,1,1,32,Sub12_Trial32_1,1,5,5,-83.577654,False,1.987
12,0,09-May-2018,1,1,32,Sub12_Trial32_1,1,6,6,-2.851695,False,1.987
12,0,09-May-2018,1,1,33,Sub12_Trial33_0,0,0,0,-47.432239,True,0.703
12,0,09-May-2018,1,1,33,Sub12_Trial33_0,0,1,1,-10.254251,True,0.703
12,0,09-May-2018,1,1,33,Sub12_Trial33_0,0,2,2,-28.931079,True,0.703
12,0,09-May-2018,1,1,33,Sub12_Trial33_0,0,3,3,5.89212,True,0.703
12,0,09-May-2018,1,1,33,Sub12_Trial33_0,0,4,4,-96.489001,True,0.703
12,0,09-May-2018,1,1,33,Sub12_Trial33_0,0,5,5,59.732721,True,0.703
12,0,09-May-2018,1,1,33,Sub12_Trial33_0,0,6,6,-59.064082,True,0.703
12,0,09-May-2018,1,1,33,Sub12_Trial33_1,1,0,0,78.268302,False,0.703
12,0,09-May-2018,1,1,33,Sub12_Trial33_1,1,1,1,-76.132876,False,0.703
12,0,09-May-2018,1,1,33,Sub12_Trial33_1,1,2,2,-55.173432,False,0.703
12,0,09-May-2018,1,1,33,Sub12_Trial33_1,1,3,3,-3.269811,False,0.703
12,0,09-May-2018,1,1,33,Sub12_Trial33_1,1,4,4,-5.211262,False,0.703
12,0,09-May-2018,1,1,33,Sub12_Trial33_1,1,5,5,-44.879276,False,0.703
12,0,09-May-2018,1,1,33,Sub12_Trial33_1,1,6,6,-44.043113,False,0.703
12,0,09-May-2018,1,1,34,Sub12_Trial34_0,0,0,0,-9.813113,False,3.598
12,0,09-May-2018,1,1,34,Sub12_Trial34_0,0,1,1,42.971,False,3.598
12,0,09-May-2018,1,1,34,Sub12_Trial34_0,0,2,2,-35.333529,False,3.598
12,0,09-May-2018,1,1,34,Sub12_Trial34_0,0,3,3,0.980568,False,3.598
12,0,09-May-2018,1,1,34,Sub12_Trial34_0,0,4,4,44.462411,False,3.598
12,0,09-May-2018,1,1,34,Sub12_Trial34_0,0,5,5,-84.232542,False,3.598
12,0,09-May-2018,1,1,34,Sub12_Trial34_0,0,6,6,-135.223596,False,3.598
12,0,09-May-2018,1,1,34,Sub12_Trial34_1,1,0,0,-94.128041,True,3.598
12,0,09-May-2018,1,1,34,Sub12_Trial34_1,1,1,1,-108.289068,True,3.598
12,0,09-May-2018,1,1,34,Sub12_Trial34_1,1,2,2,64.354064,True,3.598
12,0,09-May-2018,1,1,34,Sub12_Trial34_1,1,3,3,-16.022905,True,3.598
12,0,09-May-2018,1,1,34,Sub12_Trial34_1,1,4,4,71.569659,True,3.598
12,0,09-May-2018,1,1,34,Sub12_Trial34_1,1,5,5,-84.197836,True,3.598
12,0,09-May-2018,1,1,34,Sub12_Trial34_1,1,6,6,45.850481,True,3.598
12,0,09-May-2018,1,1,35,Sub12_Trial35_0,0,0,0,-11.889423,True,1.007
12,0,09-May-2018,1,1,35,Sub12_Trial35_0,0,1,1,58.659476,True,1.007
12,0,09-May-2018,1,1,35,Sub12_Trial35_0,0,2,2,25.562721,True,1.007
12,0,09-May-2018,1,1,35,Sub12_Trial35_0,0,3,3,34.874899,True,1.007
12,0,09-May-2018,1,1,35,Sub12_Trial35_0,0,4,4,171.233766,True,1.007
12,0,09-May-2018,1,1,35,Sub12_Trial35_0,0,5,5,-42.79516,True,1.007
12,0,09-May-2018,1,1,35,Sub12_Trial35_0,0,6,6,-62.85807,True,1.007
12,0,09-May-2018,1,1,35,Sub12_Trial35_1,1,0,0,-74.306062,False,1.007
12,0,09-May-2018,1,1,35,Sub12_Trial35_1,1,1,1,136.007073,False,1.007
12,0,09-May-2018,1,1,35,Sub12_Trial35_1,1,2,2,13.630706,False,1.007
12,0,09-May-2018,1,1,35,Sub12_Trial35_1,1,3,3,-93.243673,False,1.007
12,0,09-May-2018,1,1,35,Sub12_Trial35_1,1,4,4,-69.795363,False,1.007
12,0,09-May-2018,1,1,35,Sub12_Trial35_1,1,5,5,-55.222732,False,1.007
12,0,09-May-2018,1,1,35,Sub12_Trial35_1,1,6,6,-57.904969,False,1.007
12,0,09-May-2018,1,1,36,Sub12_Trial36_0,0,0,0,89.58932,False,0.718
12,0,09-May-2018,1,1,36,Sub12_Trial36_0,0,1,1,-15.960406,False,0.718
12,0,09-May-2018,1,1,36,Sub12_Trial36_0,0,2,2,88.604414,False,0.718
12,0,09-May-2018,1,1,36,Sub12_Trial36_0,0,3,3,-120.768369,False,0.718
12,0,09-May-2018,1,1,36,Sub12_Trial36_0,0,4,4,47.017708,False,0.718
12,0,09-May-2018,1,1,36,Sub12_Trial36_0,0,5,5,-10.949047,False,0.718
12,0,09-May-2018,1,1,36,Sub12_Trial36_0,0,6,6,-42.799286,False,0.718
12,0,09-May-2018,1,1,36,Sub12_Trial36_1,1,0,0,-17.082957,True,0.718
12,0,09-May-2018,1,1,36,Sub12_Trial36_1,1,1,1,144.307913,True,0.718
12,0,09-May-2018,1,1,36,Sub12_Trial36_1,1,2,2,-42.3397,True,0.718
12,0,09-May-2018,1,1,36,Sub12_Trial36_1,1,3,3,-52.452774,True,0.718
12,0,09-May-2018,1,1,36,Sub12_Trial36_1,1,4,4,-88.66394,True,0.718
12,0,09-May-2018,1,1,36,Sub12_Trial36_1,1,5,5,47.398817,True,0.718
12,0,09-May-2018,1,1,36,Sub12_Trial36_1,1,6,6,-38.728116,True,0.718
12,0,09-May-2018,1,1,37,Sub12_Trial37_0,0,0,0,-34.554833,False,2.068
12,0,09-May-2018,1,1,37,Sub12_Trial37_0,0,1,1,-182.36349,False,2.068
12,0,09-May-2018,1,1,37,Sub12_Trial37_0,0,2,2,-3.694391,False,2.068
12,0,09-May-2018,1,1,37,Sub12_Trial37_0,0,3,3,102.866194,False,2.068
12,0,09-May-2018,1,1,37,Sub12_Trial37_0,0,4,4,-47.898222,False,2.068
12,0,09-May-2018,1,1,37,Sub12_Trial37_0,0,5,5,-22.67324,False,2.068
12,0,09-May-2018,1,1,37,Sub12_Trial37_0,0,6,6,84.963449,False,2.068
12,0,09-May-2018,1,1,37,Sub12_Trial37_1,1,0,0,-56.876147,True,2.068
12,0,09-May-2018,1,1,37,Sub12_Trial37_1,1,1,1,73.589001,True,2.068
12,0,09-May-2018,1,1,37,Sub12_Trial37_1,1,2,2,22.764404,True,2.068
12,0,09-May-2018,1,1,37,Sub12_Trial37_1,1,3,3,29.294151,True,2.068
12,0,09-May-2018,1,1,37,Sub12_Trial37_1,1,4,4,-8.668346,True,2.068
12,0,09-May-2018,1,1,37,Sub12_Trial37_1,1,5,5,97.057049,True,2.068
12,0,09-May-2018,1,1,37,Sub12_Trial37_1,1,6,6,-28.178137,True,2.068
12,0,09-May-2018,1,1,38,Sub12_Trial38_0,0,0,0,-12.314666,True,0.895
12,0,09-May-2018,1,1,38,Sub12_Trial38_0,0,1,1,-11.99257,True,0.895
12,0,09-May-2018,1,1,38,Sub12_Trial38_0,0,2,2,137.707674,True,0.895
12,0,09-May-2018,1,1,38,Sub12_Trial38_0,0,3,3,57.28236,True,0.895
12,0,09-May-2018,1,1,38,Sub12_Trial38_0,0,4,4,-72.93082,True,0.895
12,0,09-May-2018,1,1,38,Sub12_Trial38_0,0,5,5,145.421086,True,0.895
12,0,09-May-2018,1,1,38,Sub12_Trial38_0,0,6,6,-90.998449,True,0.895
12,0,09-May-2018,1,1,38,Sub12_Trial38_1,1,0,0,-94.575342,False,0.895
12,0,09-May-2018,1,1,38,Sub12_Trial38_1,1,1,1,75.265179,False,0.895
12,0,09-May-2018,1,1,38,Sub12_Trial38_1,1,2,2,-31.496335,False,0.895
12,0,09-May-2018,1,1,38,Sub12_Trial38_1,1,3,3,58.565605,False,0.895
12,0,09-May-2018,1,1,38,Sub12_Trial38_1,1,4,4,-84.983718,False,0.895
12,0,09-May-2018,1,1,38,Sub12_Trial38_1,1,5,5,2.765768,False,0.895
12,0,09-May-2018,1,1,38,Sub12_Trial38_1,1,6,6,-130.809422,False,0.895
12,0,09-May-2018,1,1,39,Sub12_Trial39_0,0,0,0,121.500237,True,1.207
12,0,09-May-2018,1,1,39,Sub12_Trial39_0,0,1,1,84.084123,True,1.207
12,0,09-May-2018,1,1,39,Sub12_Trial39_0,0,2,2,-33.015137,True,1.207
12,0,09-May-2018,1,1,39,Sub12_Trial39_0,0,3,3,-15.605104,True,1.207
12,0,09-May-2018,1,1,39,Sub12_Trial39_0,0,4,4,66.580187,True,1.207
12,0,09-May-2018,1,1,39,Sub12_Trial39_0,0,5,5,20.354388,True,1.207
12,0,09-May-2018,1,1,39,Sub12_Trial39_0,0,6,6,49.107655,True,1.207
12,0,09-May-2018,1,1,39,Sub12_Trial39_1,1,0,0,0.387349,False,1.207
12,0,09-May-2018,1,1,39,Sub12_Trial39_1,1,1,1,-73.71403,False,1.207
12,0,09-May-2018,1,1,39,Sub12_Trial39_1,1,2,2,90.99687,False,1.207
12,0,09-May-2018,1,1,39,Sub12_Trial39_1,1,3,3,127.698022,False,1.207
12,0,09-May-2018,1,1,39,Sub12_Trial39_1,1,4,4,-94.304474,False,1.207
12,0,09-May-2018,1,1,39,Sub12_Trial39_1,1,5,5,-102.4981,False,1.207
12,0,09-May-2018,1,1,39,Sub12_Trial39_1,1,6,6,37.920663,False,1.207
12,0,09-May-2018,1,1,40,Sub12_Trial40_0,0,0,0,131.123892,False,2.856
12,0,09-May-2018,1,1,40,Sub12_Trial40_0,0,1,1,13.586698,False,2.856
12,0,09-May-2018,1,1,40,Sub12_Trial40_0,0,2,2,67.424948,False,2.856
12,0,09-May-2018,1,1,40,Sub12_Trial40_0,0,3,3,51.203085,False,2.856
12,0,09-May-2018,1,1,40,Sub12_Trial40_0,0,4,4,-145.019574,False,2.856
12,0,09-May-2018,1,1,40,Sub12_Trial40_0,0,5,5,-148.901752,False,2.856
12,0,09-May-2018,1,1,40,Sub12_Trial40_0,0,6,6,-8.553628,False,2.856
12,0,09-May-2018,1,1,40,Sub12_Trial40_1,1,0,0,55.032116,True,2.856
12,0,09-May-2018,1,1,40,Sub12_Trial40_1,1,1,1,-54.600835,True,2.856
12,0,09-May-2018,1,1,40,Sub12_Trial40_1,1,2,2,176.462335,True,2.856
12,0,09-May-2018,1,1,40,Sub12_Trial40_1,1,3,3,-28.682492,True,2.856
12,0,09-May-2018,1,1,40,Sub12_Trial40_1,1,4,4,-101.098204,True,2.856
12,0,09-May-2018,1,1,40,Sub12_Trial40_1,1,5,5,134.400816,True,2.856
12,0,09-May-2018,1,1,40,Sub12_Trial40_1,1,6,6,2.787318,True,2.856
12,0,09-May-2018,1,1,41,Sub12_Trial41_0,0,0,0,-88.071154,True,2.311
12,0,09-May-2018,1,1,41,Sub12_Trial41_0,0,1,1,30.840534,True,2.311
12,0,09-May-2018,1,1,41,Sub12_Trial41_0,0,2,2,-49.032618,True,2.311
12,0,09-May-2018,1,1,41,Sub12_Trial41_0,0,3,3,52.046595,True,2.311
12,0,09-May-2018,1,1,41,Sub12_Trial41_0,0,4,4,-60.044507,True,2.311
12,0,09-May-2018,1,1,41,Sub12_Trial41_0,0,5,5,35.655401,True,2.311
12,0,09-May-2018,1,1,41,Sub12_Trial41_0,0,6,6,-69.788167,True,2.311
12,0,09-May-2018,1,1,41,Sub12_Trial41_1,1,0,0,60.242103,False,2.311
12,0,09-May-2018,1,1,41,Sub12_Trial41_1,1,1,1,62.207122,False,2.311
12,0,09-May-2018,1,1,41,Sub12_Trial41_1,1,2,2,13.416988,False,2.311
12,0,09-May-2018,1,1,41,Sub12_Trial41_1,1,3,3,-63.467859,False,2.311
12,0,09-May-2018,1,1,41,Sub12_Trial41_1,1,4,4,122.440729,False,2.311
12,0,09-May-2018,1,1,41,Sub12_Trial41_1,1,5,5,-96.863055,False,2.311
12,0,09-May-2018,1,1,41,Sub12_Trial41_1,1,6,6,160.73944,False,2.311
12,0,09-May-2018,1,1,42,Sub12_Trial42_0,0,0,0,-153.720443,True,0.758
12,0,09-May-2018,1,1,42,Sub12_Trial42_0,0,1,1,20.217793,True,0.758
12,0,09-May-2018,1,1,42,Sub12_Trial42_0,0,2,2,79.644338,True,0.758
12,0,09-May-2018,1,1,42,Sub12_Trial42_0,0,3,3,101.478297,True,0.758
12,0,09-May-2018,1,1,42,Sub12_Trial42_0,0,4,4,24.124282,True,0.758
12,0,09-May-2018,1,1,42,Sub12_Trial42_0,0,5,5,14.710047,True,0.758
12,0,09-May-2018,1,1,42,Sub12_Trial42_0,0,6,6,81.58497,True,0.758
12,0,09-May-2018,1,1,42,Sub12_Trial42_1,1,0,0,-89.638762,False,0.758
12,0,09-May-2018,1,1,42,Sub12_Trial42_1,1,1,1,35.187915,False,0.758
12,0,09-May-2018,1,1,42,Sub12_Trial42_1,1,2,2,100.736286,False,0.758
12,0,09-May-2018,1,1,42,Sub12_Trial42_1,1,3,3,89.521798,False,0.758
12,0,09-May-2018,1,1,42,Sub12_Trial42_1,1,4,4,24.166793,False,0.758
12,0,09-May-2018,1,1,42,Sub12_Trial42_1,1,5,5,-140.728347,False,0.758
12,0,09-May-2018,1,1,42,Sub12_Trial42_1,1,6,6,155.688177,False,0.758
12,0,09-May-2018,1,1,43,Sub12_Trial43_0,0,0,0,-49.345143,True,1.164
12,0,09-May-2018,1,1,43,Sub12_Trial43_0,0,1,1,-95.83517,True,1.164
12,0,09-May-2018,1,1,43,Sub12_Trial43_0,0,2,2,-133.629244,True,1.164
12,0,09-May-2018,1,1,43,Sub12_Trial43_0,0,3,3,81.423403,True,1.164
12,0,09-May-2018,1,1,43,Sub12_Trial43_0,0,4,4,-14.615624,True,1.164
12,0,09-May-2018,1,1,43,Sub12_Trial43_0,0,5,5,4.991031,True,1.164
12,0,09-May-2018,1,1,43,Sub12_Trial43_0,0,6,6,102.51247,True,1.164
12,0,09-May-2018,1,1,43,Sub12_Trial43_1,1,0,0,93.134015,False,1.164
12,0,09-May-2018,1,1,43,Sub12_Trial43_1,1,1,1,119.813567,False,1.164
12,0,09-May-2018,1,1,43,Sub12_Trial43_1,1,2,2,10.452476,False,1.164
12,0,09-May-2018,1,1,43,Sub12_Trial43_1,1,3,3,-27.579482,False,1.164
12,0,09-May-2018,1,1,43,Sub12_Trial43_1,1,4,4,39.985443,False,1.164
12,0,09-May-2018,1,1,43,Sub12_Trial43_1,1,5,5,-83.09346,False,1.164
12,0,09-May-2018,1,1,43,Sub12_Trial43_1,1,6,6,145.2738,False,1.164
12,0,09-May-2018,1,1,44,Sub12_Trial44_0,0,0,0,102.410608,False,2.445
12,0,09-May-2018,1,1,44,Sub12_Trial44_0,0,1,1,11.227589,False,2.445
12,0,09-May-2018,1,1,44,Sub12_Trial44_0,0,2,2,26.71425,False,2.445
12,0,09-May-2018,1,1,44,Sub12_Trial44_0,0,3,3,74.623826,False,2.445
12,0,09-May-2018,1,1,44,Sub12_Trial44_0,0,4,4,35.380912,False,2.445
12,0,09-May-2018,1,1,44,Sub12_Trial44_0,0,5,5,-41.67651,False,2.445
12,0,09-May-2018,1,1,44,Sub12_Trial44_0,0,6,6,-32.660952,False,2.445
12,0,09-May-2018,1,1,44,Sub12_Trial44_1,1,0,0,-17.153744,True,2.445
12,0,09-May-2018,1,1,44,Sub12_Trial44_1,1,1,1,175.801126,True,2.445
12,0,09-May-2018,1,1,44,Sub12_Trial44_1,1,2,2,43.764353,True,2.445
12,0,09-May-2018,1,1,44,Sub12_Trial44_1,1,3,3,-104.573722,True,2.445
12,0,09-May-2018,1,1,44,Sub12_Trial44_1,1,4,4,-70.562001,True,2.445
12,0,09-May-2018,1,1,44,Sub12_Trial44_1,1,5,5,107.523699,True,2.445
12,0,09-May-2018,1,1,44,Sub12_Trial44_1,1,6,6,-97.446033,True,2.445
12,0,09-May-2018,1,1,45,Sub12_Trial45_0,0,0,0,76.491956,True,1.087
12,0,09-May-2018,1,1,45,Sub12_Trial45_0,0,1,1,54.739562,True,1.087
12,0,09-May-2018,1,1,45,Sub12_Trial45_0,0,2,2,95.069706,True,1.087
12,0,09-May-2018,1,1,45,Sub12_Trial45_0,0,3,3,67.078718,True,1.087
12,0,09-May-2018,1,1,45,Sub12_Trial45_0,0,4,4,93.960714,True,1.087
12,0,09-May-2018,1,1,45,Sub12_Trial45_0,0,5,5,-44.394912,True,1.087
12,0,09-May-2018,1,1,45,Sub12_Trial45_0,0,6,6,-66.65794,True,1.087
12,0,09-May-2018,1,1,45,Sub12_Trial45_1,1,0,0,-53.408586,False,1.087
12,0,09-May-2018,1,1,45,Sub12_Trial45_1,1,1,1,27.860367,False,1.087
12,0,09-May-2018,1,1,45,Sub12_Trial45_1,1,2,2,-30.766617,False,1.087
12,0,09-May-2018,1,1,45,Sub12_Trial45_1,1,3,3,34.44761,False,1.087
12,0,09-May-2018,1,1,45,Sub12_Trial45_1,1,4,4,-114.804522,False,1.087
12,0,09-May-2018,1,1,45,Sub12_Trial45_1,1,5,5,-3.577789,False,1.087
12,0,09-May-2018,1,1,45,Sub12_Trial45_1,1,6,6,-16.817789,False,1.087
12,0,09-May-2018,1,1,46,Sub12_Trial46_0,0,0,0,42.756642,False,0.817
12,0,09-May-2018,1,1,46,Sub12_Trial46_0,0,1,1,87.015592,False,0.817
12,0,09-May-2018,1,1,46,Sub12_Trial46_0,0,2,2,69.172785,False,0.817
12,0,09-May-2018,1,1,46,Sub12_Trial46_0,0,3,3,18.098041,False,0.817
12,0,09-May-2018,1,1,46,Sub12_Trial46_0,0,4,4,185.127813,False,0.817
12,0,09-May-2018,1,1,46,Sub12_Trial46_0,0,5,5,-155.65583,False,0.817
12,0,09-May-2018,1,1,46,Sub12_Trial46_0,0,6,6,73.163706,False,0.817
12,0,09-May-2018,1,1,46,Sub12_Trial46_1,1,0,0,91.229223,True,0.817
12,0,09-May-2018,1,1,46,Sub12_Trial46_1,1,1,1,57.63447,True,0.817
12,0,09-May-2018,1,1,46,Sub12_Trial46_1,1,2,2,16.908594,True,0.817
12,0,09-May-2018,1,1,46,Sub12_Trial46_1,1,3,3,-19.802392,True,0.817
12,0,09-May-2018,1,1,46,Sub12_Trial46_1,1,4,4,5.972473,True,0.817
12,0,09-May-2018,1,1,46,Sub12_Trial46_1,1,5,5,81.544392,True,0.817
12,0,09-May-2018,1,1,46,Sub12_Trial46_1,1,6,6,111.78265,True,0.817
12,0,09-May-2018,1,1,47,Sub12_Trial47_0,0,0,0,-16.259752,True,0.789
12,0,09-May-2018,1,1,47,Sub12_Trial47_0,0,1,1,-3.386739,True,0.789
12,0,09-May-2018,1,1,47,Sub12_Trial47_0,0,2,2,28.464803,True,0.789
12,0,09-May-2018,1,1,47,Sub12_Trial47_0,0,3,3,-50.189345,True,0.789
12,0,09-May-2018,1,1,47,Sub12_Trial47_0,0,4,4,-106.803855,True,0.789
12,0,09-May-2018,1,1,47,Sub12_Trial47_0,0,5,5,129.054082,True,0.789
12,0,09-May-2018,1,1,47,Sub12_Trial47_0,0,6,6,38.762879,True,0.789
12,0,09-May-2018,1,1,47,Sub12_Trial47_1,1,0,0,151.541397,False,0.789
12,0,09-May-2018,1,1,47,Sub12_Trial47_1,1,1,1,-170.084607,False,0.789
12,0,09-May-2018,1,1,47,Sub12_Trial47_1,1,2,2,1.262013,False,0.789
12,0,09-May-2018,1,1,47,Sub12_Trial47_1,1,3,3,-114.013268,False,0.789
12,0,09-May-2018,1,1,47,Sub12_Trial47_1,1,4,4,-71.625458,False,0.789
12,0,09-May-2018,1,1,47,Sub12_Trial47_1,1,5,5,36.962074,False,0.789
12,0,09-May-2018,1,1,47,Sub12_Trial47_1,1,6,6,-29.004756,False,0.789
12,0,09-May-2018,1,1,48,Sub12_Trial48_0,0,0,0,-161.1891,True,1.062
12,0,09-May-2018,1,1,48,Sub12_Trial48_0,0,1,1,0.657856,True,1.062
12,0,09-May-2018,1,1,48,Sub12_Trial48_0,0,2,2,-53.267758,True,1.062
12,0,09-May-2018,1,1,48,Sub12_Trial48_0,0,3,3,-61.57973,True,1.062
12,0,09-May-2018,1,1,48,Sub12_Trial48_0,0,4,4,-133.178099,True,1.062
12,0,09-May-2018,1,1,48,Sub12_Trial48_0,0,5,5,23.675083,True,1.062
12,0,09-May-2018,1,1,48,Sub12_Trial48_0,0,6,6,121.406427,True,1.062
12,0,09-May-2018,1,1,48,Sub12_Trial48_1,1,0,0,161.959717,False,1.062
12,0,09-May-2018,1,1,48,Sub12_Trial48_1,1,1,1,86.193981,False,1.062
12,0,09-May-2018,1,1,48,Sub12_Trial48_1,1,2,2,-47.058642,False,1.062
12,0,09-May-2018,1,1,48,Sub12_Trial48_1,1,3,3,48.596377,False,1.062
12,0,09-May-2018,1,1,48,Sub12_Trial48_1,1,4,4,-125.12072,False,1.062
12,0,09-May-2018,1,1,48,Sub12_Trial48_1,1,5,5,-80.614603,False,1.062
12,0,09-May-2018,1,1,48,Sub12_Trial48_1,1,6,6,-77.82936,False,1.062
12,0,09-May-2018,1,1,49,Sub12_Trial49_0,0,0,0,1.132822,True,1.545
12,0,09-May-2018,1,1,49,Sub12_Trial49_0,0,1,1,15.345668,True,1.545
12,0,09-May-2018,1,1,49,Sub12_Trial49_0,0,2,2,-23.539212,True,1.545
12,0,09-May-2018,1,1,49,Sub12_Trial49_0,0,3,3,10.820729,True,1.545
12,0,09-May-2018,1,1,49,Sub12_Trial49_0,0,4,4,44.309643,True,1.545
12,0,09-May-2018,1,1,49,Sub12_Trial49_0,0,5,5,-60.089,True,1.545
12,0,09-May-2018,1,1,49,Sub12_Trial49_0,0,6,6,150.093276,True,1.545
12,0,09-May-2018,1,1,49,Sub12_Trial49_1,1,0,0,76.289806,False,1.545
12,0,09-May-2018,1,1,49,Sub12_Trial49_1,1,1,1,-45.658406,False,1.545
12,0,09-May-2018,1,1,49,Sub12_Trial49_1,1,2,2,62.018394,False,1.545
12,0,09-May-2018,1,1,49,Sub12_Trial49_1,1,3,3,169.118412,False,1.545
12,0,09-May-2018,1,1,49,Sub12_Trial49_1,1,4,4,-48.20834,False,1.545
12,0,09-May-2018,1,1,49,Sub12_Trial49_1,1,5,5,61.330866,False,1.545
12,0,09-May-2018,1,1,49,Sub12_Trial49_1,1,6,6,-122.977467,False,1.545
12,0,09-May-2018,1,1,50,Sub12_Trial50_0,0,0,0,186.152249,False,1.104
12,0,09-May-2018,1,1,50,Sub12_Trial50_0,0,1,1,0.484777,False,1.104
12,0,09-May-2018,1,1,50,Sub12_Trial50_0,0,2,2,4.544877,False,1.104
12,0,09-May-2018,1,1,50,Sub12_Trial50_0,0,3,3,38.701133,False,1.104
12,0,09-May-2018,1,1,50,Sub12_Trial50_0,0,4,4,-110.316224,False,1.104
12,0,09-May-2018,1,1,50,Sub12_Trial50_0,0,5,5,-146.785123,False,1.104
12,0,09-May-2018,1,1,50,Sub12_Trial50_0,0,6,6,86.75341,False,1.104
12,0,09-May-2018,1,1,50,Sub12_Trial50_1,1,0,0,-36.315217,True,1.104
12,0,09-May-2018,1,1,50,Sub12_Trial50_1,1,1,1,-20.242641,True,1.104
12,0,09-May-2018,1,1,50,Sub12_Trial50_1,1,2,2,29.291391,True,1.104
12,0,09-May-2018,1,1,50,Sub12_Trial50_1,1,3,3,-16.404868,True,1.104
12,0,09-May-2018,1,1,50,Sub12_Trial50_1,1,4,4,47.624896,True,1.104
12,0,09-May-2018,1,1,50,Sub12_Trial50_1,1,5,5,-8.939057,True,1.104
12,0,09-May-2018,1,1,50,Sub12_Trial50_1,1,6,6,135.185496,True,1.104
12,0,09-May-2018,1,2,51,Sub12_Trial51_0,0,0,0,-12.703681,True,1.89
12,0,09-May-2018,1,2,51,Sub12_Trial51_0,0,1,1,150.53738,True,1.89
12,0,09-May-2018,1,2,51,Sub12_Trial51_0,0,2,2,1.909835,True,1.89
12,0,09-May-2018,1,2,51,Sub12_Trial51_0,0,3,3,-76.995486,True,1.89
12,0,09-May-2018,1,2,51,Sub12_Trial51_0,0,4,4,22.878306,True,1.89
12,0,09-May-2018,1,2,51,Sub12_Trial51_0,0,5,5,60.254733,True,1.89
12,0,09-May-2018,1,2,51,Sub12_Trial51_0,0,6,6,4.375131,True,1.89
12,0,09-May-2018,1,2,51,Sub12_Trial51_1,1,0,0,117.897641,False,1.89
12,0,09-May-2018,1,2,51,Sub12_Trial51_1,1,1,1,-47.49874,False,1.89
12,0,09-May-2018,1,2,51,Sub12_Trial51_1,1,2,2,-29.127388,False,1.89
12,0,09-May-2018,1,2,51,Sub12_Trial51_1,1,3,3,92.907926,False,1.89
12,0,09-May-2018,1,2,51,Sub12_Trial51_1,1,4,4,-72.466748,False,1.89
12,0,09-May-2018,1,2,51,Sub12_Trial51_1,1,5,5,-69.470943,False,1.89
12,0,09-May-2018,1,2,51,Sub12_Trial51_1,1,6,6,53.179446,False,1.89
12,0,09-May-2018,1,2,52,Sub12_Trial52_0,0,0,0,14.442101,True,2.631
12,0,09-May-2018,1,2,52,Sub12_Trial52_0,0,1,1,13.768848,True,2.631
12,0,09-May-2018,1,2,52,Sub12_Trial52_0,0,2,2,-76.955618,True,2.631
12,0,09-May-2018,1,2,52,Sub12_Trial52_0,0,3,3,113.766897,True,2.631
12,0,09-May-2018,1,2,52,Sub12_Trial52_0,0,4,4,50.481548,True,2.631
12,0,09-May-2018,1,2,52,Sub12_Trial52_0,0,5,5,121.373796,True,2.631
12,0,09-May-2018,1,2,52,Sub12_Trial52_0,0,6,6,-78.965238,True,2.631
12,0,09-May-2018,1,2,52,Sub12_Trial52_1,1,0,0,1.554898,False,2.631
12,0,09-May-2018,1,2,52,Sub12_Trial52_1,1,1,1,-22.922809,False,2.631
12,0,09-May-2018,1,2,52,Sub12_Trial52_1,1,2,2,50.835392,False,2.631
12,0,09-May-2018,1,2,52,Sub12_Trial52_1,1,3,3,-100.788226,False,2.631
12,0,09-May-2018,1,2,52,Sub12_Trial52_1,1,4,4,58.116242,False,2.631
12,0,09-May-2018,1,2,52,Sub12_Trial52_1,1,5,5,-10.694597,False,2.631
12,0,09-May-2018,1,2,52,Sub12_Trial52_1,1,6,6,59.911588,False,2.631
12,0,09-May-2018,1,2,53,Sub12_Trial53_0,0,0,0,20.23908,True,0.739
12,0,09-May-2018,1,2,53,Sub12_Trial53_0,0,1,1,-134.474153,True,0.739
12,0,09-May-2018,1,2,53,Sub12_Trial53_0,0,2,2,-140.617919,True,0.739
12,0,09-May-2018,1,2,53,Sub12_Trial53_0,0,3,3,-39.054493,True,0.739
12,0,09-May-2018,1,2,53,Sub12_Trial53_0,0,4,4,121.050996,True,0.739
12,0,09-May-2018,1,2,53,Sub12_Trial53_0,0,5,5,137.19987,True,0.739
12,0,09-May-2018,1,2,53,Sub12_Trial53_0,0,6,6,-36.652729,True,0.739
12,0,09-May-2018,1,2,53,Sub12_Trial53_1,1,0,0,120.621271,False,0.739
12,0,09-May-2018,1,2,53,Sub12_Trial53_1,1,1,1,-55.942195,False,0.739
12,0,09-May-2018,1,2,53,Sub12_Trial53_1,1,2,2,39.284076,False,0.739
12,0,09-May-2018,1,2,53,Sub12_Trial53_1,1,3,3,-192.683617,False,0.739
12,0,09-May-2018,1,2,53,Sub12_Trial53_1,1,4,4,63.711124,False,0.739
12,0,09-May-2018,1,2,53,Sub12_Trial53_1,1,5,5,-149.45676,False,0.739
12,0,09-May-2018,1,2,53,Sub12_Trial53_1,1,6,6,22.382084,False,0.739
12,0,09-May-2018,1,2,54,Sub12_Trial54_0,0,0,0,-96.835957,False,0.529
12,0,09-May-2018,1,2,54,Sub12_Trial54_0,0,1,1,-40.047867,False,0.529
12,0,09-May-2018,1,2,54,Sub12_Trial54_0,0,2,2,26.210761,False,0.529
12,0,09-May-2018,1,2,54,Sub12_Trial54_0,0,3,3,50.227895,False,0.529
12,0,09-May-2018,1,2,54,Sub12_Trial54_0,0,4,4,83.069217,False,0.529
12,0,09-May-2018,1,2,54,Sub12_Trial54_0,0,5,5,-52.713704,False,0.529
12,0,09-May-2018,1,2,54,Sub12_Trial54_0,0,6,6,114.934286,False,0.529
12,0,09-May-2018,1,2,54,Sub12_Trial54_1,1,0,0,41.117314,True,0.529
12,0,09-May-2018,1,2,54,Sub12_Trial54_1,1,1,1,-178.731105,True,0.529
12,0,09-May-2018,1,2,54,Sub12_Trial54_1,1,2,2,-72.240498,True,0.529
12,0,09-May-2018,1,2,54,Sub12_Trial54_1,1,3,3,-110.186366,True,0.529
12,0,09-May-2018,1,2,54,Sub12_Trial54_1,1,4,4,-17.854496,True,0.529
12,0,09-May-2018,1,2,54,Sub12_Trial54_1,1,5,5,177.793442,True,0.529
12,0,09-May-2018,1,2,54,Sub12_Trial54_1,1,6,6,34.390227,True,0.529
12,0,09-May-2018,1,2,55,Sub12_Trial55_0,0,0,0,-44.456815,False,1.509
12,0,09-May-2018,1,2,55,Sub12_Trial55_0,0,1,1,-120.170182,False,1.509
12,0,09-May-2018,1,2,55,Sub12_Trial55_0,0,2,2,-1.946855,False,1.509
12,0,09-May-2018,1,2,55,Sub12_Trial55_0,0,3,3,-4.917747,False,1.509
12,0,09-May-2018,1,2,55,Sub12_Trial55_0,0,4,4,-40.716633,False,1.509
12,0,09-May-2018,1,2,55,Sub12_Trial55_0,0,5,5,7.00508,False,1.509
12,0,09-May-2018,1,2,55,Sub12_Trial55_0,0,6,6,-42.149459,False,1.509
12,0,09-May-2018,1,2,55,Sub12_Trial55_1,1,0,0,-19.604941,True,1.509
12,0,09-May-2018,1,2,55,Sub12_Trial55_1,1,1,1,-7.758657,True,1.509
12,0,09-May-2018,1,2,55,Sub12_Trial55_1,1,2,2,16.003113,True,1.509
12,0,09-May-2018,1,2,55,Sub12_Trial55_1,1,3,3,-103.699678,True,1.509
12,0,09-May-2018,1,2,55,Sub12_Trial55_1,1,4,4,10.966697,True,1.509
12,0,09-May-2018,1,2,55,Sub12_Trial55_1,1,5,5,-72.266962,True,1.509
12,0,09-May-2018,1,2,55,Sub12_Trial55_1,1,6,6,180.684744,True,1.509
12,0,09-May-2018,1,2,56,Sub12_Trial56_0,0,0,0,-74.573958,True,1.151
12,0,09-May-2018,1,2,56,Sub12_Trial56_0,0,1,1,28.975857,True,1.151
12,0,09-May-2018,1,2,56,Sub12_Trial56_0,0,2,2,91.28006,True,1.151
12,0,09-May-2018,1,2,56,Sub12_Trial56_0,0,3,3,114.200363,True,1.151
12,0,09-May-2018,1,2,56,Sub12_Trial56_0,0,4,4,54.386933,True,1.151
12,0,09-May-2018,1,2,56,Sub12_Trial56_0,0,5,5,188.018243,True,1.151
12,0,09-May-2018,1,2,56,Sub12_Trial56_0,0,6,6,129.192902,True,1.151
12,0,09-May-2018,1,2,56,Sub12_Trial56_1,1,0,0,-13.604856,False,1.151
12,0,09-May-2018,1,2,56,Sub12_Trial56_1,1,1,1,67.606626,False,1.151
12,0,09-May-2018,1,2,56,Sub12_Trial56_1,1,2,2,106.11136,False,1.151
12,0,09-May-2018,1,2,56,Sub12_Trial56_1,1,3,3,59.623676,False,1.151
12,0,09-May-2018,1,2,56,Sub12_Trial56_1,1,4,4,97.652006,False,1.151
12,0,09-May-2018,1,2,56,Sub12_Trial56_1,1,5,5,-46.262278,False,1.151
12,0,09-May-2018,1,2,56,Sub12_Trial56_1,1,6,6,32.354634,False,1.151
12,0,09-May-2018,1,2,57,Sub12_Trial57_0,0,0,0,95.301632,False,0.666
12,0,09-May-2018,1,2,57,Sub12_Trial57_0,0,1,1,-144.941488,False,0.666
12,0,09-May-2018,1,2,57,Sub12_Trial57_0,0,2,2,-23.321109,False,0.666
12,0,09-May-2018,1,2,57,Sub12_Trial57_0,0,3,3,80.013186,False,0.666
12,0,09-May-2018,1,2,57,Sub12_Trial57_0,0,4,4,-71.848036,False,0.666
12,0,09-May-2018,1,2,57,Sub12_Trial57_0,0,5,5,48.969089,False,0.666
12,0,09-May-2018,1,2,57,Sub12_Trial57_0,0,6,6,-130.09996,False,0.666
12,0,09-May-2018,1,2,57,Sub12_Trial57_1,1,0,0,-5.882129,True,0.666
12,0,09-May-2018,1,2,57,Sub12_Trial57_1,1,1,1,93.384315,True,0.666
12,0,09-May-2018,1,2,57,Sub12_Trial57_1,1,2,2,-19.256873,True,0.666
12,0,09-May-2018,1,2,57,Sub12_Trial57_1,1,3,3,166.643542,True,0.666
12,0,09-May-2018,1,2,57,Sub12_Trial57_1,1,4,4,-16.760796,True,0.666
12,0,09-May-2018,1,2,57,Sub12_Trial57_1,1,5,5,160.61379,True,0.666
12,0,09-May-2018,1,2,57,Sub12_Trial57_1,1,6,6,92.072589,True,0.666
12,0,09-May-2018,1,2,58,Sub12_Trial58_0,0,0,0,128.607324,False,1.124
12,0,09-May-2018,1,2,58,Sub12_Trial58_0,0,1,1,9.087551,False,1.124
12,0,09-May-2018,1,2,58,Sub12_Trial58_0,0,2,2,-48.591203,False,1.124
12,0,09-May-2018,1,2,58,Sub12_Trial58_0,0,3,3,23.962083,False,1.124
12,0,09-May-2018,1,2,58,Sub12_Trial58_0,0,4,4,8.29475,False,1.124
12,0,09-May-2018,1,2,58,Sub12_Trial58_0,0,5,5,-119.044408,False,1.124
12,0,09-May-2018,1,2,58,Sub12_Trial58_0,0,6,6,-165.30844,False,1.124
12,0,09-May-2018,1,2,58,Sub12_Trial58_1,1,0,0,76.696714,True,1.124
12,0,09-May-2018,1,2,58,Sub12_Trial58_1,1,1,1,33.745733,True,1.124
12,0,09-May-2018,1,2,58,Sub12_Trial58_1,1,2,2,56.028714,True,1.124
12,0,09-May-2018,1,2,58,Sub12_Trial58_1,1,3,3,-106.254637,True,1.124
12,0,09-May-2018,1,2,58,Sub12_Trial58_1,1,4,4,-13.109934,True,1.124
12,0,09-May-2018,1,2,58,Sub12_Trial58_1,1,5,5,-41.866766,True,1.124
12,0,09-May-2018,1,2,58,Sub12_Trial58_1,1,6,6,75.895804,True,1.124
12,0,09-May-2018,1,2,59,Sub12_Trial59_0,0,0,0,-32.510315,True,1.705
12,0,09-May-2018,1,2,59,Sub12_Trial59_0,0,1,1,59.599402,True,1.705
12,0,09-May-2018,1,2,59,Sub12_Trial59_0,0,2,2,5.212866,True,1.705
12,0,09-May-2018,1,2,59,Sub12_Trial59_0,0,3,3,-56.640266,True,1.705
12,0,09-May-2018,1,2,59,Sub12_Trial59_0,0,4,4,56.613055,True,1.705
12,0,09-May-2018,1,2,59,Sub12_Trial59_0,0,5,5,-87.911061,True,1.705
12,0,09-May-2018,1,2,59,Sub12_Trial59_0,0,6,6,-163.106922,True,1.705
12,0,09-May-2018,1,2,59,Sub12_Trial59_1,1,0,0,141.489223,False,1.705
12,0,09-May-2018,1,2,59,Sub12_Trial59_1,1,1,1,-20.150832,False,1.705
12,0,09-May-2018,1,2,59,Sub12_Trial59_1,1,2,2,-49.590974,False,1.705
12,0,09-May-2018,1,2,59,Sub12_Trial59_1,1,3,3,-54.459927,False,1.705
12,0,09-May-2018,1,2,59,Sub12_Trial59_1,1,4,4,-82.485184,False,1.705
12,0,09-May-2018,1,2,59,Sub12_Trial59_1,1,5,5,-56.110354,False,1.705
12,0,09-May-2018,1,2,59,Sub12_Trial59_1,1,6,6,-14.6411,False,1.705
12,0,09-May-2018,1,2,60,Sub12_Trial60_0,0,0,0,-26.875415,False,0.611
12,0,09-May-2018,1,2,60,Sub12_Trial60_0,0,1,1,-51.047471,False,0.611
12,0,09-May-2018,1,2,60,Sub12_Trial60_0,0,2,2,-28.838409,False,0.611
12,0,09-May-2018,1,2,60,Sub12_Trial60_0,0,3,3,55.829401,False,0.611
12,0,09-May-2018,1,2,60,Sub12_Trial60_0,0,4,4,0.120087,False,0.611
12,0,09-May-2018,1,2,60,Sub12_Trial60_0,0,5,5,23.18841,False,0.611
12,0,09-May-2018,1,2,60,Sub12_Trial60_0,0,6,6,-20.431629,False,0.611
12,0,09-May-2018,1,2,60,Sub12_Trial60_1,1,0,0,6.488933,True,0.611
12,0,09-May-2018,1,2,60,Sub12_Trial60_1,1,1,1,-159.155265,True,0.611
12,0,09-May-2018,1,2,60,Sub12_Trial60_1,1,2,2,-13.998132,True,0.611
12,0,09-May-2018,1,2,60,Sub12_Trial60_1,1,3,3,-74.363105,True,0.611
12,0,09-May-2018,1,2,60,Sub12_Trial60_1,1,4,4,19.932651,True,0.611
12,0,09-May-2018,1,2,60,Sub12_Trial60_1,1,5,5,34.835719,True,0.611
12,0,09-May-2018,1,2,60,Sub12_Trial60_1,1,6,6,71.109448,True,0.611
12,0,09-May-2018,1,2,61,Sub12_Trial61_0,0,0,0,79.835706,False,0.603
12,0,09-May-2018,1,2,61,Sub12_Trial61_0,0,1,1,-60.728271,False,0.603
12,0,09-May-2018,1,2,61,Sub12_Trial61_0,0,2,2,-40.25974,False,0.603
12,0,09-May-2018,1,2,61,Sub12_Trial61_0,0,3,3,-121.178015,False,0.603
12,0,09-May-2018,1,2,61,Sub12_Trial61_0,0,4,4,54.452841,False,0.603
12,0,09-May-2018,1,2,61,Sub12_Trial61_0,0,5,5,-74.197709,False,0.603
12,0,09-May-2018,1,2,61,Sub12_Trial61_0,0,6,6,14.774942,False,0.603
12,0,09-May-2018,1,2,61,Sub12_Trial61_1,1,0,0,77.332107,True,0.603
12,0,09-May-2018,1,2,61,Sub12_Trial61_1,1,1,1,-129.167135,True,0.603
12,0,09-May-2018,1,2,61,Sub12_Trial61_1,1,2,2,-53.772063,True,0.603
12,0,09-May-2018,1,2,61,Sub12_Trial61_1,1,3,3,69.435234,True,0.603
12,0,09-May-2018,1,2,61,Sub12_Trial61_1,1,4,4,86.455218,True,0.603
12,0,09-May-2018,1,2,61,Sub12_Trial61_1,1,5,5,2.384999,True,0.603
12,0,09-May-2018,1,2,61,Sub12_Trial61_1,1,6,6,91.928317,True,0.603
12,0,09-May-2018,1,2,62,Sub12_Trial62_0,0,0,0,71.680198,True,0.53
12,0,09-May-2018,1,2,62,Sub12_Trial62_0,0,1,1,121.894866,True,0.53
12,0,09-May-2018,1,2,62,Sub12_Trial62_0,0,2,2,-65.667225,True,0.53
12,0,09-May-2018,1,2,62,Sub12_Trial62_0,0,3,3,-34.890593,True,0.53
12,0,09-May-2018,1,2,62,Sub12_Trial62_0,0,4,4,5.830191,True,0.53
12,0,09-May-2018,1,2,62,Sub12_Trial62_0,0,5,5,110.883122,True,0.53
12,0,09-May-2018,1,2,62,Sub12_Trial62_0,0,6,6,-80.772482,True,0.53
12,0,09-May-2018,1,2,62,Sub12_Trial62_1,1,0,0,1.414795,False,0.53
12,0,09-May-2018,1,2,62,Sub12_Trial62_1,1,1,1,130.952664,False,0.53
12,0,09-May-2018,1,2,62,Sub12_Trial62_1,1,2,2,21.148261,False,0.53
12,0,09-May-2018,1,2,62,Sub12_Trial62_1,1,3,3,102.290229,False,0.53
12,0,09-May-2018,1,2,62,Sub12_Trial62_1,1,4,4,-76.264948,False,0.53
12,0,09-May-2018,1,2,62,Sub12_Trial62_1,1,5,5,-8.380246,False,0.53
12,0,09-May-2018,1,2,62,Sub12_Trial62_1,1,6,6,43.398462,False,0.53
12,0,09-May-2018,1,2,63,Sub12_Trial63_0,0,0,0,12.382179,False,0.487
12,0,09-May-2018,1,2,63,Sub12_Trial63_0,0,1,1,49.728402,False,0.487
12,0,09-May-2018,1,2,63,Sub12_Trial63_0,0,2,2,107.763447,False,0.487
12,0,09-May-2018,1,2,63,Sub12_Trial63_0,0,3,3,20.302989,False,0.487
12,0,09-May-2018,1,2,63,Sub12_Trial63_0,0,4,4,85.103916,False,0.487
12,0,09-May-2018,1,2,63,Sub12_Trial63_0,0,5,5,0.37658,False,0.487
12,0,09-May-2018,1,2,63,Sub12_Trial63_0,0,6,6,-31.396128,False,0.487
12,0,09-May-2018,1,2,63,Sub12_Trial63_1,1,0,0,-48.607336,True,0.487
12,0,09-May-2018,1,2,63,Sub12_Trial63_1,1,1,1,69.683177,True,0.487
12,0,09-May-2018,1,2,63,Sub12_Trial63_1,1,2,2,4.714973,True,0.487
12,0,09-May-2018,1,2,63,Sub12_Trial63_1,1,3,3,-92.778665,True,0.487
12,0,09-May-2018,1,2,63,Sub12_Trial63_1,1,4,4,-30.337587,True,0.487
12,0,09-May-2018,1,2,63,Sub12_Trial63_1,1,5,5,144.413283,True,0.487
12,0,09-May-2018,1,2,63,Sub12_Trial63_1,1,6,6,-109.925008,True,0.487
12,0,09-May-2018,1,2,64,Sub12_Trial64_0,0,0,0,-138.471721,False,0.396
12,0,09-May-2018,1,2,64,Sub12_Trial64_0,0,1,1,-95.142577,False,0.396
12,0,09-May-2018,1,2,64,Sub12_Trial64_0,0,2,2,26.613403,False,0.396
12,0,09-May-2018,1,2,64,Sub12_Trial64_0,0,3,3,153.690695,False,0.396
12,0,09-May-2018,1,2,64,Sub12_Trial64_0,0,4,4,-94.670094,False,0.396
12,0,09-May-2018,1,2,64,Sub12_Trial64_0,0,5,5,-39.106246,False,0.396
12,0,09-May-2018,1,2,64,Sub12_Trial64_0,0,6,6,-74.218074,False,0.396
12,0,09-May-2018,1,2,64,Sub12_Trial64_1,1,0,0,-56.852418,True,0.396
12,0,09-May-2018,1,2,64,Sub12_Trial64_1,1,1,1,83.991728,True,0.396
12,0,09-May-2018,1,2,64,Sub12_Trial64_1,1,2,2,-66.818463,True,0.396
12,0,09-May-2018,1,2,64,Sub12_Trial64_1,1,3,3,-153.452764,True,0.396
12,0,09-May-2018,1,2,64,Sub12_Trial64_1,1,4,4,83.518521,True,0.396
12,0,09-May-2018,1,2,64,Sub12_Trial64_1,1,5,5,73.198771,True,0.396
12,0,09-May-2018,1,2,64,Sub12_Trial64_1,1,6,6,61.60645,True,0.396
12,0,09-May-2018,1,2,65,Sub12_Trial65_0,0,0,0,118.659564,True,1.347
12,0,09-May-2018,1,2,65,Sub12_Trial65_0,0,1,1,37.807823,True,1.347
12,0,09-May-2018,1,2,65,Sub12_Trial65_0,0,2,2,-9.27391,True,1.347
12,0,09-May-2018,1,2,65,Sub12_Trial65_0,0,3,3,-18.389245,True,1.347
12,0,09-May-2018,1,2,65,Sub12_Trial65_0,0,4,4,21.101485,True,1.347
12,0,09-May-2018,1,2,65,Sub12_Trial65_0,0,5,5,-5.600252,True,1.347
12,0,09-May-2018,1,2,65,Sub12_Trial65_0,0,6,6,-83.834989,True,1.347
12,0,09-May-2018,1,2,65,Sub12_Trial65_1,1,0,0,17.698782,False,1.347
12,0,09-May-2018,1,2,65,Sub12_Trial65_1,1,1,1,-124.222844,False,1.347
12,0,09-May-2018,1,2,65,Sub12_Trial65_1,1,2,2,-50.167015,False,1.347
12,0,09-May-2018,1,2,65,Sub12_Trial65_1,1,3,3,91.283631,False,1.347
12,0,09-May-2018,1,2,65,Sub12_Trial65_1,1,4,4,17.382862,False,1.347
12,0,09-May-2018,1,2,65,Sub12_Trial65_1,1,5,5,-1.372226,False,1.347
12,0,09-May-2018,1,2,65,Sub12_Trial65_1,1,6,6,57.525596,False,1.347
12,0,09-May-2018,1,2,66,Sub12_Trial66_0,0,0,0,-71.2518,True,1.303
12,0,09-May-2018,1,2,66,Sub12_Trial66_0,0,1,1,-9.213263,True,1.303
12,0,09-May-2018,1,2,66,Sub12_Trial66_0,0,2,2,-18.011801,True,1.303
12,0,09-May-2018,1,2,66,Sub12_Trial66_0,0,3,3,-173.391327,True,1.303
12,0,09-May-2018,1,2,66,Sub12_Trial66_0,0,4,4,25.727234,True,1.303
12,0,09-May-2018,1,2,66,Sub12_Trial66_0,0,5,5,80.23978,True,1.303
12,0,09-May-2018,1,2,66,Sub12_Trial66_0,0,6,6,3.81179,True,1.303
12,0,09-May-2018,1,2,66,Sub12_Trial66_1,1,0,0,135.228165,False,1.303
12,0,09-May-2018,1,2,66,Sub12_Trial66_1,1,1,1,122.515421,False,1.303
12,0,09-May-2018,1,2,66,Sub12_Trial66_1,1,2,2,164.503929,False,1.303
12,0,09-May-2018,1,2,66,Sub12_Trial66_1,1,3,3,-39.367153,False,1.303
12,0,09-May-2018,1,2,66,Sub12_Trial66_1,1,4,4,-59.674113,False,1.303
12,0,09-May-2018,1,2,66,Sub12_Trial66_1,1,5,5,75.22233,False,1.303
12,0,09-May-2018,1,2,66,Sub12_Trial66_1,1,6,6,-67.616838,False,1.303
12,0,09-May-2018,1,2,67,Sub12_Trial67_0,0,0,0,-85.310878,False,0.371
12,0,09-May-2018,1,2,67,Sub12_Trial67_0,0,1,1,-56.824484,False,0.371
12,0,09-May-2018,1,2,67,Sub12_Trial67_0,0,2,2,-98.789008,False,0.371
12,0,09-May-2018,1,2,67,Sub12_Trial67_0,0,3,3,-71.705606,False,0.371
12,0,09-May-2018,1,2,67,Sub12_Trial67_0,0,4,4,-93.673675,False,0.371
12,0,09-May-2018,1,2,67,Sub12_Trial67_0,0,5,5,39.883824,False,0.371
12,0,09-May-2018,1,2,67,Sub12_Trial67_0,0,6,6,40.968329,False,0.371
12,0,09-May-2018,1,2,67,Sub12_Trial67_1,1,0,0,29.981046,True,0.371
12,0,09-May-2018,1,2,67,Sub12_Trial67_1,1,1,1,92.110224,True,0.371
12,0,09-May-2018,1,2,67,Sub12_Trial67_1,1,2,2,61.386827,True,0.371
12,0,09-May-2018,1,2,67,Sub12_Trial67_1,1,3,3,21.714838,True,0.371
12,0,09-May-2018,1,2,67,Sub12_Trial67_1,1,4,4,-67.719697,True,0.371
12,0,09-May-2018,1,2,67,Sub12_Trial67_1,1,5,5,111.087821,True,0.371
12,0,09-May-2018,1,2,67,Sub12_Trial67_1,1,6,6,-25.218278,True,0.371
12,0,09-May-2018,1,2,68,Sub12_Trial68_0,0,0,0,-86.469105,True,1.793
12,0,09-May-2018,1,2,68,Sub12_Trial68_0,0,1,1,42.814661,True,1.793
12,0,09-May-2018,1,2,68,Sub12_Trial68_0,0,2,2,46.868757,True,1.793
12,0,09-May-2018,1,2,68,Sub12_Trial68_0,0,3,3,-60.007935,True,1.793
12,0,09-May-2018,1,2,68,Sub12_Trial68_0,0,4,4,15.322928,True,1.793
12,0,09-May-2018,1,2,68,Sub12_Trial68_0,0,5,5,-72.648337,True,1.793
12,0,09-May-2018,1,2,68,Sub12_Trial68_0,0,6,6,-36.579925,True,1.793
12,0,09-May-2018,1,2,68,Sub12_Trial68_1,1,0,0,-14.248385,False,1.793
12,0,09-May-2018,1,2,68,Sub12_Trial68_1,1,1,1,-69.628598,False,1.793
12,0,09-May-2018,1,2,68,Sub12_Trial68_1,1,2,2,17.070075,False,1.793
12,0,09-May-2018,1,2,68,Sub12_Trial68_1,1,3,3,97.181541,False,1.793
12,0,09-May-2018,1,2,68,Sub12_Trial68_1,1,4,4,-27.776713,False,1.793
12,0,09-May-2018,1,2,68,Sub12_Trial68_1,1,5,5,-111.760526,False,1.793
12,0,09-May-2018,1,2,68,Sub12_Trial68_1,1,6,6,-22.376922,False,1.793
12,0,09-May-2018,1,2,69,Sub12_Trial69_0,0,0,0,72.758239,True,0.772
12,0,09-May-2018,1,2,69,Sub12_Trial69_0,0,1,1,-50.404633,True,0.772
12,0,09-May-2018,1,2,69,Sub12_Trial69_0,0,2,2,48.347058,True,0.772
12,0,09-May-2018,1,2,69,Sub12_Trial69_0,0,3,3,-8.704127,True,0.772
12,0,09-May-2018,1,2,69,Sub12_Trial69_0,0,4,4,-86.463996,True,0.772
12,0,09-May-2018,1,2,69,Sub12_Trial69_0,0,5,5,68.54008,True,0.772
12,0,09-May-2018,1,2,69,Sub12_Trial69_0,0,6,6,-14.350943,True,0.772
12,0,09-May-2018,1,2,69,Sub12_Trial69_1,1,0,0,-62.529992,False,0.772
12,0,09-May-2018,1,2,69,Sub12_Trial69_1,1,1,1,-76.462458,False,0.772
12,0,09-May-2018,1,2,69,Sub12_Trial69_1,1,2,2,61.675004,False,0.772
12,0,09-May-2018,1,2,69,Sub12_Trial69_1,1,3,3,114.972417,False,0.772
12,0,09-May-2018,1,2,69,Sub12_Trial69_1,1,4,4,63.559015,False,0.772
12,0,09-May-2018,1,2,69,Sub12_Trial69_1,1,5,5,-135.204214,False,0.772
12,0,09-May-2018,1,2,69,Sub12_Trial69_1,1,6,6,-117.049909,False,0.772
12,0,09-May-2018,1,2,70,Sub12_Trial70_0,0,0,0,107.555222,False,0.522
12,0,09-May-2018,1,2,70,Sub12_Trial70_0,0,1,1,-167.841607,False,0.522
12,0,09-May-2018,1,2,70,Sub12_Trial70_0,0,2,2,-80.351012,False,0.522
12,0,09-May-2018,1,2,70,Sub12_Trial70_0,0,3,3,184.980876,False,0.522
12,0,09-May-2018,1,2,70,Sub12_Trial70_0,0,4,4,9.744685,False,0.522
12,0,09-May-2018,1,2,70,Sub12_Trial70_0,0,5,5,61.985372,False,0.522
12,0,09-May-2018,1,2,70,Sub12_Trial70_0,0,6,6,-67.527922,False,0.522
12,0,09-May-2018,1,2,70,Sub12_Trial70_1,1,0,0,24.553253,True,0.522
12,0,09-May-2018,1,2,70,Sub12_Trial70_1,1,1,1,-148.961331,True,0.522
12,0,09-May-2018,1,2,70,Sub12_Trial70_1,1,2,2,-0.700902,True,0.522
12,0,09-May-2018,1,2,70,Sub12_Trial70_1,1,3,3,78.484486,True,0.522
12,0,09-May-2018,1,2,70,Sub12_Trial70_1,1,4,4,-41.202858,True,0.522
12,0,09-May-2018,1,2,70,Sub12_Trial70_1,1,5,5,193.724149,True,0.522
12,0,09-May-2018,1,2,70,Sub12_Trial70_1,1,6,6,-11.656179,True,0.522
12,0,09-May-2018,1,2,71,Sub12_Trial71_0,0,0,0,108.641812,False,0.628
12,0,09-May-2018,1,2,71,Sub12_Trial71_0,0,1,1,40.527476,False,0.628
12,0,09-May-2018,1,2,71,Sub12_Trial71_0,0,2,2,-78.78687,False,0.628
12,0,09-May-2018,1,2,71,Sub12_Trial71_0,0,3,3,-65.270688,False,0.628
12,0,09-May-2018,1,2,71,Sub12_Trial71_0,0,4,4,-146.706967,False,0.628
12,0,09-May-2018,1,2,71,Sub12_Trial71_0,0,5,5,118.847905,False,0.628
12,0,09-May-2018,1,2,71,Sub12_Trial71_0,0,6,6,-9.666501,False,0.628
12,0,09-May-2018,1,2,71,Sub12_Trial71_1,1,0,0,42.043583,True,0.628
12,0,09-May-2018,1,2,71,Sub12_Trial71_1,1,1,1,138.050266,True,0.628
12,0,09-May-2018,1,2,71,Sub12_Trial71_1,1,2,2,12.66333,True,0.628
12,0,09-May-2018,1,2,71,Sub12_Trial71_1,1,3,3,142.517754,True,0.628
12,0,09-May-2018,1,2,71,Sub12_Trial71_1,1,4,4,12.694296,True,0.628
12,0,09-May-2018,1,2,71,Sub12_Trial71_1,1,5,5,101.456353,True,0.628
12,0,09-May-2018,1,2,71,Sub12_Trial71_1,1,6,6,65.369082,True,0.628
12,0,09-May-2018,1,2,72,Sub12_Trial72_0,0,0,0,63.840773,True,1.64
12,0,09-May-2018,1,2,72,Sub12_Trial72_0,0,1,1,60.058667,True,1.64
12,0,09-May-2018,1,2,72,Sub12_Trial72_0,0,2,2,-11.296896,True,1.64
12,0,09-May-2018,1,2,72,Sub12_Trial72_0,0,3,3,-35.79734,True,1.64
12,0,09-May-2018,1,2,72,Sub12_Trial72_0,0,4,4,71.621722,True,1.64
12,0,09-May-2018,1,2,72,Sub12_Trial72_0,0,5,5,112.855425,True,1.64
12,0,09-May-2018,1,2,72,Sub12_Trial72_0,0,6,6,-82.122804,True,1.64
12,0,09-May-2018,1,2,72,Sub12_Trial72_1,1,0,0,24.76221,False,1.64
12,0,09-May-2018,1,2,72,Sub12_Trial72_1,1,1,1,-104.083114,False,1.64
12,0,09-May-2018,1,2,72,Sub12_Trial72_1,1,2,2,49.499708,False,1.64
12,0,09-May-2018,1,2,72,Sub12_Trial72_1,1,3,3,2.184298,False,1.64
12,0,09-May-2018,1,2,72,Sub12_Trial72_1,1,4,4,-72.283811,False,1.64
12,0,09-May-2018,1,2,72,Sub12_Trial72_1,1,5,5,36.068752,False,1.64
12,0,09-May-2018,1,2,72,Sub12_Trial72_1,1,6,6,114.888917,False,1.64
12,0,09-May-2018,1,2,73,Sub12_Trial73_0,0,0,0,-139.905056,True,0.762
12,0,09-May-2018,1,2,73,Sub12_Trial73_0,0,1,1,-42.023387,True,0.762
12,0,09-May-2018,1,2,73,Sub12_Trial73_0,0,2,2,43.713672,True,0.762
12,0,09-May-2018,1,2,73,Sub12_Trial73_0,0,3,3,-25.714677,True,0.762
12,0,09-May-2018,1,2,73,Sub12_Trial73_0,0,4,4,0.48284,True,0.762
12,0,09-May-2018,1,2,73,Sub12_Trial73_0,0,5,5,142.625943,True,0.762
12,0,09-May-2018,1,2,73,Sub12_Trial73_0,0,6,6,-42.870058,True,0.762
12,0,09-May-2018,1,2,73,Sub12_Trial73_1,1,0,0,-78.864913,False,0.762
12,0,09-May-2018,1,2,73,Sub12_Trial73_1,1,1,1,73.0393,False,0.762
12,0,09-May-2018,1,2,73,Sub12_Trial73_1,1,2,2,-116.239574,False,0.762
12,0,09-May-2018,1,2,73,Sub12_Trial73_1,1,3,3,71.234857,False,0.762
12,0,09-May-2018,1,2,73,Sub12_Trial73_1,1,4,4,85.398982,False,0.762
12,0,09-May-2018,1,2,73,Sub12_Trial73_1,1,5,5,-33.768537,False,0.762
12,0,09-May-2018,1,2,73,Sub12_Trial73_1,1,6,6,-88.728339,False,0.762
12,0,09-May-2018,1,2,74,Sub12_Trial74_0,0,0,0,-119.993957,False,0.62
12,0,09-May-2018,1,2,74,Sub12_Trial74_0,0,1,1,-0.124472,False,0.62
12,0,09-May-2018,1,2,74,Sub12_Trial74_0,0,2,2,124.347604,False,0.62
12,0,09-May-2018,1,2,74,Sub12_Trial74_0,0,3,3,35.181405,False,0.62
12,0,09-May-2018,1,2,74,Sub12_Trial74_0,0,4,4,-35.657528,False,0.62
12,0,09-May-2018,1,2,74,Sub12_Trial74_0,0,5,5,-30.802231,False,0.62
12,0,09-May-2018,1,2,74,Sub12_Trial74_0,0,6,6,123.946094,False,0.62
12,0,09-May-2018,1,2,74,Sub12_Trial74_1,1,0,0,19.605077,True,0.62
12,0,09-May-2018,1,2,74,Sub12_Trial74_1,1,1,1,-184.72938,True,0.62
12,0,09-May-2018,1,2,74,Sub12_Trial74_1,1,2,2,94.073147,True,0.62
12,0,09-May-2018,1,2,74,Sub12_Trial74_1,1,3,3,139.114526,True,0.62
12,0,09-May-2018,1,2,74,Sub12_Trial74_1,1,4,4,81.190335,True,0.62
12,0,09-May-2018,1,2,74,Sub12_Trial74_1,1,5,5,93.426831,True,0.62
12,0,09-May-2018,1,2,74,Sub12_Trial74_1,1,6,6,47.374861,True,0.62
12,0,09-May-2018,1,2,75,Sub12_Trial75_0,0,0,0,-37.703904,True,0.74
12,0,09-May-2018,1,2,75,Sub12_Trial75_0,0,1,1,-111.030676,True,0.74
12,0,09-May-2018,1,2,75,Sub12_Trial75_0,0,2,2,27.824237,True,0.74
12,0,09-May-2018,1,2,75,Sub12_Trial75_0,0,3,3,-149.000659,True,0.74
12,0,09-May-2018,1,2,75,Sub12_Trial75_0,0,4,4,-115.487795,True,0.74
12,0,09-May-2018,1,2,75,Sub12_Trial75_0,0,5,5,-3.915975,True,0.74
12,0,09-May-2018,1,2,75,Sub12_Trial75_0,0,6,6,-58.447811,True,0.74
12,0,09-May-2018,1,2,75,Sub12_Trial75_1,1,0,0,34.373251,False,0.74
12,0,09-May-2018,1,2,75,Sub12_Trial75_1,1,1,1,19.466919,False,0.74
12,0,09-May-2018,1,2,75,Sub12_Trial75_1,1,2,2,73.1815,False,0.74
12,0,09-May-2018,1,2,75,Sub12_Trial75_1,1,3,3,11.407458,False,0.74
12,0,09-May-2018,1,2,75,Sub12_Trial75_1,1,4,4,-49.315493,False,0.74
12,0,09-May-2018,1,2,75,Sub12_Trial75_1,1,5,5,-134.976982,False,0.74
12,0,09-May-2018,1,2,75,Sub12_Trial75_1,1,6,6,-112.433538,False,0.74
12,0,09-May-2018,1,2,76,Sub12_Trial76_0,0,0,0,68.307294,True,0.951
12,0,09-May-2018,1,2,76,Sub12_Trial76_0,0,1,1,-42.963337,True,0.951
12,0,09-May-2018,1,2,76,Sub12_Trial76_0,0,2,2,21.037283,True,0.951
12,0,09-May-2018,1,2,76,Sub12_Trial76_0,0,3,3,-53.206733,True,0.951
12,0,09-May-2018,1,2,76,Sub12_Trial76_0,0,4,4,-98.316457,True,0.951
12,0,09-May-2018,1,2,76,Sub12_Trial76_0,0,5,5,-15.589467,True,0.951
12,0,09-May-2018,1,2,76,Sub12_Trial76_0,0,6,6,20.761162,True,0.951
12,0,09-May-2018,1,2,76,Sub12_Trial76_1,1,0,0,-98.413993,False,0.951
12,0,09-May-2018,1,2,76,Sub12_Trial76_1,1,1,1,65.02381,False,0.951
12,0,09-May-2018,1,2,76,Sub12_Trial76_1,1,2,2,-128.198632,False,0.951
12,0,09-May-2018,1,2,76,Sub12_Trial76_1,1,3,3,-13.333039,False,0.951
12,0,09-May-2018,1,2,76,Sub12_Trial76_1,1,4,4,147.047849,False,0.951
12,0,09-May-2018,1,2,76,Sub12_Trial76_1,1,5,5,-169.200312,False,0.951
12,0,09-May-2018,1,2,76,Sub12_Trial76_1,1,6,6,-53.016233,False,0.951
12,0,09-May-2018,1,2,77,Sub12_Trial77_0,0,0,0,-5.270473,True,1.434
12,0,09-May-2018,1,2,77,Sub12_Trial77_0,0,1,1,-21.569932,True,1.434
12,0,09-May-2018,1,2,77,Sub12_Trial77_0,0,2,2,-29.428373,True,1.434
12,0,09-May-2018,1,2,77,Sub12_Trial77_0,0,3,3,-37.581726,True,1.434
12,0,09-May-2018,1,2,77,Sub12_Trial77_0,0,4,4,141.467566,True,1.434
12,0,09-May-2018,1,2,77,Sub12_Trial77_0,0,5,5,-35.208382,True,1.434
12,0,09-May-2018,1,2,77,Sub12_Trial77_0,0,6,6,77.390154,True,1.434
12,0,09-May-2018,1,2,77,Sub12_Trial77_1,1,0,0,54.160815,False,1.434
12,0,09-May-2018,1,2,77,Sub12_Trial77_1,1,1,1,81.225537,False,1.434
12,0,09-May-2018,1,2,77,Sub12_Trial77_1,1,2,2,28.991627,False,1.434
12,0,09-May-2018,1,2,77,Sub12_Trial77_1,1,3,3,45.998761,False,1.434
12,0,09-May-2018,1,2,77,Sub12_Trial77_1,1,4,4,77.264024,False,1.434
12,0,09-May-2018,1,2,77,Sub12_Trial77_1,1,5,5,-101.493219,False,1.434
12,0,09-May-2018,1,2,77,Sub12_Trial77_1,1,6,6,8.330144,False,1.434
12,0,09-May-2018,1,2,78,Sub12_Trial78_0,0,0,0,-65.499125,True,1.426
12,0,09-May-2018,1,2,78,Sub12_Trial78_0,0,1,1,31.347286,True,1.426
12,0,09-May-2018,1,2,78,Sub12_Trial78_0,0,2,2,-9.739554,True,1.426
12,0,09-May-2018,1,2,78,Sub12_Trial78_0,0,3,3,110.696005,True,1.426
12,0,09-May-2018,1,2,78,Sub12_Trial78_0,0,4,4,115.997442,True,1.426
12,0,09-May-2018,1,2,78,Sub12_Trial78_0,0,5,5,85.365681,True,1.426
12,0,09-May-2018,1,2,78,Sub12_Trial78_0,0,6,6,37.729285,True,1.426
12,0,09-May-2018,1,2,78,Sub12_Trial78_1,1,0,0,127.504986,False,1.426
12,0,09-May-2018,1,2,78,Sub12_Trial78_1,1,1,1,-39.596203,False,1.426
12,0,09-May-2018,1,2,78,Sub12_Trial78_1,1,2,2,136.937737,False,1.426
12,0,09-May-2018,1,2,78,Sub12_Trial78_1,1,3,3,12.848704,False,1.426
12,0,09-May-2018,1,2,78,Sub12_Trial78_1,1,4,4,-117.914614,False,1.426
12,0,09-May-2018,1,2,78,Sub12_Trial78_1,1,5,5,-64.748289,False,1.426
12,0,09-May-2018,1,2,78,Sub12_Trial78_1,1,6,6,-24.74464,False,1.426
12,0,09-May-2018,1,2,79,Sub12_Trial79_0,0,0,0,9.658924,False,1.006
12,0,09-May-2018,1,2,79,Sub12_Trial79_0,0,1,1,73.949703,False,1.006
12,0,09-May-2018,1,2,79,Sub12_Trial79_0,0,2,2,-110.419075,False,1.006
12,0,09-May-2018,1,2,79,Sub12_Trial79_0,0,3,3,19.264421,False,1.006
12,0,09-May-2018,1,2,79,Sub12_Trial79_0,0,4,4,36.775554,False,1.006
12,0,09-May-2018,1,2,79,Sub12_Trial79_0,0,5,5,81.252816,False,1.006
12,0,09-May-2018,1,2,79,Sub12_Trial79_0,0,6,6,2.159458,False,1.006
12,0,09-May-2018,1,2,79,Sub12_Trial79_1,1,0,0,11.874769,True,1.006
12,0,09-May-2018,1,2,79,Sub12_Trial79_1,1,1,1,64.320703,True,1.006
12,0,09-May-2018,1,2,79,Sub12_Trial79_1,1,2,2,14.605163,True,1.006
12,0,09-May-2018,1,2,79,Sub12_Trial79_1,1,3,3,21.37739,True,1.006
12,0,09-May-2018,1,2,79,Sub12_Trial79_1,1,4,4,147.841753,True,1.006
12,0,09-May-2018,1,2,79,Sub12_Trial79_1,1,5,5,26.633358,True,1.006
12,0,09-May-2018,1,2,79,Sub12_Trial79_1,1,6,6,22.455452,True,1.006
12,0,09-May-2018,1,2,80,Sub12_Trial80_0,0,0,0,-169.58747,False,0.365
12,0,09-May-2018,1,2,80,Sub12_Trial80_0,0,1,1,-111.771275,False,0.365
12,0,09-May-2018,1,2,80,Sub12_Trial80_0,0,2,2,-59.2746,False,0.365
12,0,09-May-2018,1,2,80,Sub12_Trial80_0,0,3,3,-21.410491,False,0.365
12,0,09-May-2018,1,2,80,Sub12_Trial80_0,0,4,4,75.972507,False,0.365
12,0,09-May-2018,1,2,80,Sub12_Trial80_0,0,5,5,-14.930255,False,0.365
12,0,09-May-2018,1,2,80,Sub12_Trial80_0,0,6,6,122.356389,False,0.365
12,0,09-May-2018,1,2,80,Sub12_Trial80_1,1,0,0,22.303646,True,0.365
12,0,09-May-2018,1,2,80,Sub12_Trial80_1,1,1,1,9.633808,True,0.365
12,0,09-May-2018,1,2,80,Sub12_Trial80_1,1,2,2,-91.305526,True,0.365
12,0,09-May-2018,1,2,80,Sub12_Trial80_1,1,3,3,87.816092,True,0.365
12,0,09-May-2018,1,2,80,Sub12_Trial80_1,1,4,4,-107.356047,True,0.365
12,0,09-May-2018,1,2,80,Sub12_Trial80_1,1,5,5,120.539893,True,0.365
12,0,09-May-2018,1,2,80,Sub12_Trial80_1,1,6,6,-109.068764,True,0.365
12,0,09-May-2018,1,2,81,Sub12_Trial81_0,0,0,0,-10.727491,False,2.284
12,0,09-May-2018,1,2,81,Sub12_Trial81_0,0,1,1,5.424561,False,2.284
12,0,09-May-2018,1,2,81,Sub12_Trial81_0,0,2,2,28.028687,False,2.284
12,0,09-May-2018,1,2,81,Sub12_Trial81_0,0,3,3,30.522436,False,2.284
12,0,09-May-2018,1,2,81,Sub12_Trial81_0,0,4,4,-113.210227,False,2.284
12,0,09-May-2018,1,2,81,Sub12_Trial81_0,0,5,5,-97.865433,False,2.284
12,0,09-May-2018,1,2,81,Sub12_Trial81_0,0,6,6,25.272891,False,2.284
12,0,09-May-2018,1,2,81,Sub12_Trial81_1,1,0,0,-34.468629,True,2.284
12,0,09-May-2018,1,2,81,Sub12_Trial81_1,1,1,1,-128.011919,True,2.284
12,0,09-May-2018,1,2,81,Sub12_Trial81_1,1,2,2,-4.457258,True,2.284
12,0,09-May-2018,1,2,81,Sub12_Trial81_1,1,3,3,-16.899885,True,2.284
12,0,09-May-2018,1,2,81,Sub12_Trial81_1,1,4,4,118.418986,True,2.284
12,0,09-May-2018,1,2,81,Sub12_Trial81_1,1,5,5,-59.686918,True,2.284
12,0,09-May-2018,1,2,81,Sub12_Trial81_1,1,6,6,-65.027432,True,2.284
12,0,09-May-2018,1,2,82,Sub12_Trial82_0,0,0,0,-159.578361,False,0.818
12,0,09-May-2018,1,2,82,Sub12_Trial82_0,0,1,1,-50.320892,False,0.818
12,0,09-May-2018,1,2,82,Sub12_Trial82_0,0,2,2,-39.084749,False,0.818
12,0,09-May-2018,1,2,82,Sub12_Trial82_0,0,3,3,-36.917445,False,0.818
12,0,09-May-2018,1,2,82,Sub12_Trial82_0,0,4,4,-13.042551,False,0.818
12,0,09-May-2018,1,2,82,Sub12_Trial82_0,0,5,5,-102.935128,False,0.818
12,0,09-May-2018,1,2,82,Sub12_Trial82_0,0,6,6,-65.563493,False,0.818
12,0,09-May-2018,1,2,82,Sub12_Trial82_1,1,0,0,102.054553,True,0.818
12,0,09-May-2018,1,2,82,Sub12_Trial82_1,1,1,1,120.271749,True,0.818
12,0,09-May-2018,1,2,82,Sub12_Trial82_1,1,2,2,111.217199,True,0.818
12,0,09-May-2018,1,2,82,Sub12_Trial82_1,1,3,3,40.295075,True,0.818
12,0,09-May-2018,1,2,82,Sub12_Trial82_1,1,4,4,-24.630556,True,0.818
12,0,09-May-2018,1,2,82,Sub12_Trial82_1,1,5,5,-96.702894,True,0.818
12,0,09-May-2018,1,2,82,Sub12_Trial82_1,1,6,6,51.19338,True,0.818
12,0,09-May-2018,1,2,83,Sub12_Trial83_0,0,0,0,6.146947,True,1.774
12,0,09-May-2018,1,2,83,Sub12_Trial83_0,0,1,1,-6.726083,True,1.774
12,0,09-May-2018,1,2,83,Sub12_Trial83_0,0,2,2,-77.218528,True,1.774
12,0,09-May-2018,1,2,83,Sub12_Trial83_0,0,3,3,-46.75253,True,1.774
12,0,09-May-2018,1,2,83,Sub12_Trial83_0,0,4,4,-67.938039,True,1.774
12,0,09-May-2018,1,2,83,Sub12_Trial83_0,0,5,5,71.520396,True,1.774
12,0,09-May-2018,1,2,83,Sub12_Trial83_0,0,6,6,21.567678,True,1.774
12,0,09-May-2018,1,2,83,Sub12_Trial83_1,1,0,0,-42.003357,False,1.774
12,0,09-May-2018,1,2,83,Sub12_Trial83_1,1,1,1,-11.858735,False,1.774
12,0,09-May-2018,1,2,83,Sub12_Trial83_1,1,2,2,-4.607594,False,1.774
12,0,09-May-2018,1,2,83,Sub12_Trial83_1,1,3,3,23.81439,False,1.774
12,0,09-May-2018,1,2,83,Sub12_Trial83_1,1,4,4,51.019754,False,1.774
12,0,09-May-2018,1,2,83,Sub12_Trial83_1,1,5,5,-50.918552,False,1.774
12,0,09-May-2018,1,2,83,Sub12_Trial83_1,1,6,6,-55.309237,False,1.774
12,0,09-May-2018,1,2,84,Sub12_Trial84_0,0,0,0,91.351417,False,1.231
12,0,09-May-2018,1,2,84,Sub12_Trial84_0,0,1,1,-45.660576,False,1.231
12,0,09-May-2018,1,2,84,Sub12_Trial84_0,0,2,2,-34.556643,False,1.231
12,0,09-May-2018,1,2,84,Sub12_Trial84_0,0,3,3,130.082632,False,1.231
12,0,09-May-2018,1,2,84,Sub12_Trial84_0,0,4,4,49.947674,False,1.231
12,0,09-May-2018,1,2,84,Sub12_Trial84_0,0,5,5,-46.147155,False,1.231
12,0,09-May-2018,1,2,84,Sub12_Trial84_0,0,6,6,-10.607229,False,1.231
12,0,09-May-2018,1,2,84,Sub12_Trial84_1,1,0,0,109.381957,True,1.231
12,0,09-May-2018,1,2,84,Sub12_Trial84_1,1,1,1,76.453888,True,1.231
12,0,09-May-2018,1,2,84,Sub12_Trial84_1,1,2,2,-24.305045,True,1.231
12,0,09-May-2018,1,2,84,Sub12_Trial84_1,1,3,3,-43.598406,True,1.231
12,0,09-May-2018,1,2,84,Sub12_Trial84_1,1,4,4,58.920924,True,1.231
12,0,09-May-2018,1,2,84,Sub12_Trial84_1,1,5,5,30.889095,True,1.231
12,0,09-May-2018,1,2,84,Sub12_Trial84_1,1,6,6,-3.30908,True,1.231
12,0,09-May-2018,1,2,85,Sub12_Trial85_0,0,0,0,-70.560666,True,0.5
12,0,09-May-2018,1,2,85,Sub12_Trial85_0,0,1,1,-114.343433,True,0.5
12,0,09-May-2018,1,2,85,Sub12_Trial85_0,0,2,2,169.07779,True,0.5
12,0,09-May-2018,1,2,85,Sub12_Trial85_0,0,3,3,121.664416,True,0.5
12,0,09-May-2018,1,2,85,Sub12_Trial85_0,0,4,4,-21.54986,True,0.5
12,0,09-May-2018,1,2,85,Sub12_Trial85_0,0,5,5,-26.581697,True,0.5
12,0,09-May-2018,1,2,85,Sub12_Trial85_0,0,6,6,23.798543,True,0.5
12,0,09-May-2018,1,2,85,Sub12_Trial85_1,1,0,0,18.242468,False,0.5
12,0,09-May-2018,1,2,85,Sub12_Trial85_1,1,1,1,-108.187567,False,0.5
12,0,09-May-2018,1,2,85,Sub12_Trial85_1,1,2,2,64.500716,False,0.5
12,0,09-May-2018,1,2,85,Sub12_Trial85_1,1,3,3,-7.090916,False,0.5
12,0,09-May-2018,1,2,85,Sub12_Trial85_1,1,4,4,139.937005,False,0.5
12,0,09-May-2018,1,2,85,Sub12_Trial85_1,1,5,5,-6.677262,False,0.5
12,0,09-May-2018,1,2,85,Sub12_Trial85_1,1,6,6,63.540588,False,0.5
12,0,09-May-2018,1,2,86,Sub12_Trial86_0,0,0,0,13.917469,False,0.374
12,0,09-May-2018,1,2,86,Sub12_Trial86_0,0,1,1,6.916142,False,0.374
12,0,09-May-2018,1,2,86,Sub12_Trial86_0,0,2,2,29.925121,False,0.374
12,0,09-May-2018,1,2,86,Sub12_Trial86_0,0,3,3,117.136291,False,0.374
12,0,09-May-2018,1,2,86,Sub12_Trial86_0,0,4,4,18.08702,False,0.374
12,0,09-May-2018,1,2,86,Sub12_Trial86_0,0,5,5,-83.336896,False,0.374
12,0,09-May-2018,1,2,86,Sub12_Trial86_0,0,6,6,-96.598473,False,0.374
12,0,09-May-2018,1,2,86,Sub12_Trial86_1,1,0,0,-31.367596,True,0.374
12,0,09-May-2018,1,2,86,Sub12_Trial86_1,1,1,1,-153.045508,True,0.374
12,0,09-May-2018,1,2,86,Sub12_Trial86_1,1,2,2,34.298897,True,0.374
12,0,09-May-2018,1,2,86,Sub12_Trial86_1,1,3,3,-8.519512,True,0.374
12,0,09-May-2018,1,2,86,Sub12_Trial86_1,1,4,4,20.741896,True,0.374
12,0,09-May-2018,1,2,86,Sub12_Trial86_1,1,5,5,86.037146,True,0.374
12,0,09-May-2018,1,2,86,Sub12_Trial86_1,1,6,6,-145.148772,True,0.374
12,0,09-May-2018,1,2,87,Sub12_Trial87_0,0,0,0,-12.923916,False,0.553
12,0,09-May-2018,1,2,87,Sub12_Trial87_0,0,1,1,4.79598,False,0.553
12,0,09-May-2018,1,2,87,Sub12_Trial87_0,0,2,2,-93.168457,False,0.553
12,0,09-May-2018,1,2,87,Sub12_Trial87_0,0,3,3,131.955508,False,0.553
12,0,09-May-2018,1,2,87,Sub12_Trial87_0,0,4,4,2.020658,False,0.553
12,0,09-May-2018,1,2,87,Sub12_Trial87_0,0,5,5,-178.870423,False,0.553
12,0,09-May-2018,1,2,87,Sub12_Trial87_0,0,6,6,-5.408606,False,0.553
12,0,09-May-2018,1,2,87,Sub12_Trial87_1,1,0,0,97.344382,True,0.553
12,0,09-May-2018,1,2,87,Sub12_Trial87_1,1,1,1,31.142641,True,0.553
12,0,09-May-2018,1,2,87,Sub12_Trial87_1,1,2,2,-57.907821,True,0.553
12,0,09-May-2018,1,2,87,Sub12_Trial87_1,1,3,3,-192.375638,True,0.553
12,0,09-May-2018,1,2,87,Sub12_Trial87_1,1,4,4,-76.244961,True,0.553
12,0,09-May-2018,1,2,87,Sub12_Trial87_1,1,5,5,80.563998,True,0.553
12,0,09-May-2018,1,2,87,Sub12_Trial87_1,1,6,6,-28.585929,True,0.553
12,0,09-May-2018,1,2,88,Sub12_Trial88_0,0,0,0,-3.39583,False,1.772
12,0,09-May-2018,1,2,88,Sub12_Trial88_0,0,1,1,-26.014151,False,1.772
12,0,09-May-2018,1,2,88,Sub12_Trial88_0,0,2,2,-70.496381,False,1.772
12,0,09-May-2018,1,2,88,Sub12_Trial88_0,0,3,3,64.969862,False,1.772
12,0,09-May-2018,1,2,88,Sub12_Trial88_0,0,4,4,48.787315,False,1.772
12,0,09-May-2018,1,2,88,Sub12_Trial88_0,0,5,5,-53.25001,False,1.772
12,0,09-May-2018,1,2,88,Sub12_Trial88_0,0,6,6,-30.700054,False,1.772
12,0,09-May-2018,1,2,88,Sub12_Trial88_1,1,0,0,112.773478,True,1.772
12,0,09-May-2018,1,2,88,Sub12_Trial88_1,1,1,1,-4.399592,True,1.772
12,0,09-May-2018,1,2,88,Sub12_Trial88_1,1,2,2,141.883666,True,1.772
12,0,09-May-2018,1,2,88,Sub12_Trial88_1,1,3,3,90.092288,True,1.772
12,0,09-May-2018,1,2,88,Sub12_Trial88_1,1,4,4,-10.176932,True,1.772
12,0,09-May-2018,1,2,88,Sub12_Trial88_1,1,5,5,-90.135049,True,1.772
12,0,09-May-2018,1,2,88,Sub12_Trial88_1,1,6,6,48.354556,True,1.772
12,0,09-May-2018,1,2,89,Sub12_Trial89_0,0,0,0,30.741766,True,3.056
12,0,09-May-2018,1,2,89,Sub12_Trial89_0,0,1,1,-55.783191,True,3.056
12,0,09-May-2018,1,2,89,Sub12_Trial89_0,0,2,2,-12.721585,True,3.056
12,0,09-May-2018,1,2,89,Sub12_Trial89_0,0,3,3,-52.655711,True,3.056
12,0,09-May-2018,1,2,89,Sub12_Trial89_0,0,4,4,-53.110634,True,3.056
12,0,09-May-2018,1,2,89,Sub12_Trial89_0,0,5,5,46.798243,True,3.056
12,0,09-May-2018,1,2,89,Sub12_Trial89_0,0,6,6,97.24702,True,3.056
12,0,09-May-2018,1,2,89,Sub12_Trial89_1,1,0,0,-24.35764,False,3.056
12,0,09-May-2018,1,2,89,Sub12_Trial89_1,1,1,1,-89.300647,False,3.056
12,0,09-May-2018,1,2,89,Sub12_Trial89_1,1,2,2,34.228744,False,3.056
12,0,09-May-2018,1,2,89,Sub12_Trial89_1,1,3,3,19.401889,False,3.056
12,0,09-May-2018,1,2,89,Sub12_Trial89_1,1,4,4,192.091641,False,3.056
12,0,09-May-2018,1,2,89,Sub12_Trial89_1,1,5,5,-65.687856,False,3.056
12,0,09-May-2018,1,2,89,Sub12_Trial89_1,1,6,6,-27.156929,False,3.056
12,0,09-May-2018,1,2,90,Sub12_Trial90_0,0,0,0,4.616535,False,0.567
12,0,09-May-2018,1,2,90,Sub12_Trial90_0,0,1,1,-149.554843,False,0.567
12,0,09-May-2018,1,2,90,Sub12_Trial90_0,0,2,2,-31.817784,False,0.567
12,0,09-May-2018,1,2,90,Sub12_Trial90_0,0,3,3,-11.485678,False,0.567
12,0,09-May-2018,1,2,90,Sub12_Trial90_0,0,4,4,32.425194,False,0.567
12,0,09-May-2018,1,2,90,Sub12_Trial90_0,0,5,5,-11.070945,False,0.567
12,0,09-May-2018,1,2,90,Sub12_Trial90_0,0,6,6,-64.803949,False,0.567
12,0,09-May-2018,1,2,90,Sub12_Trial90_1,1,0,0,95.568581,True,0.567
12,0,09-May-2018,1,2,90,Sub12_Trial90_1,1,1,1,-0.808248,True,0.567
12,0,09-May-2018,1,2,90,Sub12_Trial90_1,1,2,2,76.426012,True,0.567
12,0,09-May-2018,1,2,90,Sub12_Trial90_1,1,3,3,67.69553,True,0.567
12,0,09-May-2018,1,2,90,Sub12_Trial90_1,1,4,4,-53.694942,True,0.567
12,0,09-May-2018,1,2,90,Sub12_Trial90_1,1,5,5,-1.148309,True,0.567
12,0,09-May-2018,1,2,90,Sub12_Trial90_1,1,6,6,-57.275658,True,0.567
12,0,09-May-2018,1,2,91,Sub12_Trial91_0,0,0,0,-30.527292,False,0.646
12,0,09-May-2018,1,2,91,Sub12_Trial91_0,0,1,1,45.303711,False,0.646
12,0,09-May-2018,1,2,91,Sub12_Trial91_0,0,2,2,-4.769655,False,0.646
12,0,09-May-2018,1,2,91,Sub12_Trial91_0,0,3,3,70.66165,False,0.646
12,0,09-May-2018,1,2,91,Sub12_Trial91_0,0,4,4,-13.267403,False,0.646
12,0,09-May-2018,1,2,91,Sub12_Trial91_0,0,5,5,-44.620708,False,0.646
12,0,09-May-2018,1,2,91,Sub12_Trial91_0,0,6,6,118.985071,False,0.646
12,0,09-May-2018,1,2,91,Sub12_Trial91_1,1,0,0,14.051436,True,0.646
12,0,09-May-2018,1,2,91,Sub12_Trial91_1,1,1,1,-3.923974,True,0.646
12,0,09-May-2018,1,2,91,Sub12_Trial91_1,1,2,2,-46.131759,True,0.646
12,0,09-May-2018,1,2,91,Sub12_Trial91_1,1,3,3,-28.790981,True,0.646
12,0,09-May-2018,1,2,91,Sub12_Trial91_1,1,4,4,-48.477131,True,0.646
12,0,09-May-2018,1,2,91,Sub12_Trial91_1,1,5,5,9.674197,True,0.646
12,0,09-May-2018,1,2,91,Sub12_Trial91_1,1,6,6,32.872135,True,0.646
12,0,09-May-2018,1,2,92,Sub12_Trial92_0,0,0,0,99.585108,False,0.377
12,0,09-May-2018,1,2,92,Sub12_Trial92_0,0,1,1,94.093758,False,0.377
12,0,09-May-2018,1,2,92,Sub12_Trial92_0,0,2,2,124.125106,False,0.377
12,0,09-May-2018,1,2,92,Sub12_Trial92_0,0,3,3,-106.885071,False,0.377
12,0,09-May-2018,1,2,92,Sub12_Trial92_0,0,4,4,-13.648706,False,0.377
12,0,09-May-2018,1,2,92,Sub12_Trial92_0,0,5,5,47.240159,False,0.377
12,0,09-May-2018,1,2,92,Sub12_Trial92_0,0,6,6,-57.957748,False,0.377
12,0,09-May-2018,1,2,92,Sub12_Trial92_1,1,0,0,-49.663581,True,0.377
12,0,09-May-2018,1,2,92,Sub12_Trial92_1,1,1,1,-72.190896,True,0.377
12,0,09-May-2018,1,2,92,Sub12_Trial92_1,1,2,2,-102.647524,True,0.377
12,0,09-May-2018,1,2,92,Sub12_Trial92_1,1,3,3,10.285552,True,0.377
12,0,09-May-2018,1,2,92,Sub12_Trial92_1,1,4,4,-23.456628,True,0.377
12,0,09-May-2018,1,2,92,Sub12_Trial92_1,1,5,5,7.340437,True,0.377
12,0,09-May-2018,1,2,92,Sub12_Trial92_1,1,6,6,10.262844,True,0.377
12,0,09-May-2018,1,2,93,Sub12_Trial93_0,0,0,0,55.023417,False,0.668
12,0,09-May-2018,1,2,93,Sub12_Trial93_0,0,1,1,-73.292946,False,0.668
12,0,09-May-2018,1,2,93,Sub12_Trial93_0,0,2,2,-42.904584,False,0.668
12,0,09-May-2018,1,2,93,Sub12_Trial93_0,0,3,3,-39.749173,False,0.668
12,0,09-May-2018,1,2,93,Sub12_Trial93_0,0,4,4,-1.797218,False,0.668
12,0,09-May-2018,1,2,93,Sub12_Trial93_0,0,5,5,-88.542709,False,0.668
12,0,09-May-2018,1,2,93,Sub12_Trial93_0,0,6,6,-189.680138,False,0.668
12,0,09-May-2018,1,2,93,Sub12_Trial93_1,1,0,0,-49.714691,True,0.668
12,0,09-May-2018,1,2,93,Sub12_Trial93_1,1,1,1,94.074154,True,0.668
12,0,09-May-2018,1,2,93,Sub12_Trial93_1,1,2,2,-62.418289,True,0.668
12,0,09-May-2018,1,2,93,Sub12_Trial93_1,1,3,3,-100.603154,True,0.668
12,0,09-May-2018,1,2,93,Sub12_Trial93_1,1,4,4,-93.06878,True,0.668
12,0,09-May-2018,1,2,93,Sub12_Trial93_1,1,5,5,-7.977318,True,0.668
12,0,09-May-2018,1,2,93,Sub12_Trial93_1,1,6,6,9.954773,True,0.668
12,0,09-May-2018,1,2,94,Sub12_Trial94_0,0,0,0,75.271649,True,0.798
12,0,09-May-2018,1,2,94,Sub12_Trial94_0,0,1,1,-11.149391,True,0.798
12,0,09-May-2018,1,2,94,Sub12_Trial94_0,0,2,2,66.410648,True,0.798
12,0,09-May-2018,1,2,94,Sub12_Trial94_0,0,3,3,-8.663544,True,0.798
12,0,09-May-2018,1,2,94,Sub12_Trial94_0,0,4,4,-19.237976,True,0.798
12,0,09-May-2018,1,2,94,Sub12_Trial94_0,0,5,5,189.922838,True,0.798
12,0,09-May-2018,1,2,94,Sub12_Trial94_0,0,6,6,155.583413,True,0.798
12,0,09-May-2018,1,2,94,Sub12_Trial94_1,1,0,0,109.614684,False,0.798
12,0,09-May-2018,1,2,94,Sub12_Trial94_1,1,1,1,32.765299,False,0.798
12,0,09-May-2018,1,2,94,Sub12_Trial94_1,1,2,2,-33.08353,False,0.798
12,0,09-May-2018,1,2,94,Sub12_Trial94_1,1,3,3,-47.175842,False,0.798
12,0,09-May-2018,1,2,94,Sub12_Trial94_1,1,4,4,-132.989083,False,0.798
12,0,09-May-2018,1,2,94,Sub12_Trial94_1,1,5,5,-56.993608,False,0.798
12,0,09-May-2018,1,2,94,Sub12_Trial94_1,1,6,6,-50.256109,False,0.798
12,0,09-May-2018,1,2,95,Sub12_Trial95_0,0,0,0,-122.218035,False,0.664
12,0,09-May-2018,1,2,95,Sub12_Trial95_0,0,1,1,9.615926,False,0.664
12,0,09-May-2018,1,2,95,Sub12_Trial95_0,0,2,2,71.955246,False,0.664
12,0,09-May-2018,1,2,95,Sub12_Trial95_0,0,3,3,142.774813,False,0.664
12,0,09-May-2018,1,2,95,Sub12_Trial95_0,0,4,4,-161.227137,False,0.664
12,0,09-May-2018,1,2,95,Sub12_Trial95_0,0,5,5,92.452714,False,0.664
12,0,09-May-2018,1,2,95,Sub12_Trial95_0,0,6,6,-29.614611,False,0.664
12,0,09-May-2018,1,2,95,Sub12_Trial95_1,1,0,0,7.827871,True,0.664
12,0,09-May-2018,1,2,95,Sub12_Trial95_1,1,1,1,98.431344,True,0.664
12,0,09-May-2018,1,2,95,Sub12_Trial95_1,1,2,2,92.156284,True,0.664
12,0,09-May-2018,1,2,95,Sub12_Trial95_1,1,3,3,-39.974311,True,0.664
12,0,09-May-2018,1,2,95,Sub12_Trial95_1,1,4,4,149.582276,True,0.664
12,0,09-May-2018,1,2,95,Sub12_Trial95_1,1,5,5,49.438305,True,0.664
12,0,09-May-2018,1,2,95,Sub12_Trial95_1,1,6,6,109.279817,True,0.664
12,0,09-May-2018,1,2,96,Sub12_Trial96_0,0,0,0,-97.456572,True,2.617
12,0,09-May-2018,1,2,96,Sub12_Trial96_0,0,1,1,-108.744103,True,2.617
12,0,09-May-2018,1,2,96,Sub12_Trial96_0,0,2,2,91.005434,True,2.617
12,0,09-May-2018,1,2,96,Sub12_Trial96_0,0,3,3,4.517032,True,2.617
12,0,09-May-2018,1,2,96,Sub12_Trial96_0,0,4,4,-53.203819,True,2.617
12,0,09-May-2018,1,2,96,Sub12_Trial96_0,0,5,5,-17.355853,True,2.617
12,0,09-May-2018,1,2,96,Sub12_Trial96_0,0,6,6,-18.030551,True,2.617
12,0,09-May-2018,1,2,96,Sub12_Trial96_1,1,0,0,-81.510635,False,2.617
12,0,09-May-2018,1,2,96,Sub12_Trial96_1,1,1,1,-132.796202,False,2.617
12,0,09-May-2018,1,2,96,Sub12_Trial96_1,1,2,2,-150.71344,False,2.617
12,0,09-May-2018,1,2,96,Sub12_Trial96_1,1,3,3,81.597718,False,2.617
12,0,09-May-2018,1,2,96,Sub12_Trial96_1,1,4,4,26.622792,False,2.617
12,0,09-May-2018,1,2,96,Sub12_Trial96_1,1,5,5,-50.149762,False,2.617
12,0,09-May-2018,1,2,96,Sub12_Trial96_1,1,6,6,62.284678,False,2.617
12,0,09-May-2018,1,2,97,Sub12_Trial97_0,0,0,0,-93.702457,False,0.56
12,0,09-May-2018,1,2,97,Sub12_Trial97_0,0,1,1,-137.696254,False,0.56
12,0,09-May-2018,1,2,97,Sub12_Trial97_0,0,2,2,-65.735732,False,0.56
12,0,09-May-2018,1,2,97,Sub12_Trial97_0,0,3,3,27.217967,False,0.56
12,0,09-May-2018,1,2,97,Sub12_Trial97_0,0,4,4,-15.890481,False,0.56
12,0,09-May-2018,1,2,97,Sub12_Trial97_0,0,5,5,-117.81191,False,0.56
12,0,09-May-2018,1,2,97,Sub12_Trial97_0,0,6,6,3.720951,False,0.56
12,0,09-May-2018,1,2,97,Sub12_Trial97_1,1,0,0,36.998529,True,0.56
12,0,09-May-2018,1,2,97,Sub12_Trial97_1,1,1,1,64.228542,True,0.56
12,0,09-May-2018,1,2,97,Sub12_Trial97_1,1,2,2,94.309283,True,0.56
12,0,09-May-2018,1,2,97,Sub12_Trial97_1,1,3,3,-17.355121,True,0.56
12,0,09-May-2018,1,2,97,Sub12_Trial97_1,1,4,4,-103.47555,True,0.56
12,0,09-May-2018,1,2,97,Sub12_Trial97_1,1,5,5,44.403479,True,0.56
12,0,09-May-2018,1,2,97,Sub12_Trial97_1,1,6,6,29.910387,True,0.56
12,0,09-May-2018,1,2,98,Sub12_Trial98_0,0,0,0,-99.415933,True,0.928
12,0,09-May-2018,1,2,98,Sub12_Trial98_0,0,1,1,1.555938,True,0.928
12,0,09-May-2018,1,2,98,Sub12_Trial98_0,0,2,2,29.087899,True,0.928
12,0,09-May-2018,1,2,98,Sub12_Trial98_0,0,3,3,-65.172308,True,0.928
12,0,09-May-2018,1,2,98,Sub12_Trial98_0,0,4,4,-18.348183,True,0.928
12,0,09-May-2018,1,2,98,Sub12_Trial98_0,0,5,5,-6.599289,True,0.928
12,0,09-May-2018,1,2,98,Sub12_Trial98_0,0,6,6,-63.851847,True,0.928
12,0,09-May-2018,1,2,98,Sub12_Trial98_1,1,0,0,36.127606,False,0.928
12,0,09-May-2018,1,2,98,Sub12_Trial98_1,1,1,1,-7.744771,False,0.928
12,0,09-May-2018,1,2,98,Sub12_Trial98_1,1,2,2,81.9513,False,0.928
12,0,09-May-2018,1,2,98,Sub12_Trial98_1,1,3,3,58.137586,False,0.928
12,0,09-May-2018,1,2,98,Sub12_Trial98_1,1,4,4,12.58738,False,0.928
12,0,09-May-2018,1,2,98,Sub12_Trial98_1,1,5,5,-173.037277,False,0.928
12,0,09-May-2018,1,2,98,Sub12_Trial98_1,1,6,6,-24.759697,False,0.928
12,0,09-May-2018,1,2,99,Sub12_Trial99_0,0,0,0,51.594042,False,1.809
12,0,09-May-2018,1,2,99,Sub12_Trial99_0,0,1,1,39.817327,False,1.809
12,0,09-May-2018,1,2,99,Sub12_Trial99_0,0,2,2,-66.813745,False,1.809
12,0,09-May-2018,1,2,99,Sub12_Trial99_0,0,3,3,15.302739,False,1.809
12,0,09-May-2018,1,2,99,Sub12_Trial99_0,0,4,4,-53.266907,False,1.809
12,0,09-May-2018,1,2,99,Sub12_Trial99_0,0,5,5,88.255526,False,1.809
12,0,09-May-2018,1,2,99,Sub12_Trial99_0,0,6,6,-4.81305,False,1.809
12,0,09-May-2018,1,2,99,Sub12_Trial99_1,1,0,0,79.81017,True,1.809
12,0,09-May-2018,1,2,99,Sub12_Trial99_1,1,1,1,-129.138694,True,1.809
12,0,09-May-2018,1,2,99,Sub12_Trial99_1,1,2,2,-30.095618,True,1.809
12,0,09-May-2018,1,2,99,Sub12_Trial99_1,1,3,3,-101.143513,True,1.809
12,0,09-May-2018,1,2,99,Sub12_Trial99_1,1,4,4,96.643898,True,1.809
12,0,09-May-2018,1,2,99,Sub12_Trial99_1,1,5,5,-16.648282,True,1.809
12,0,09-May-2018,1,2,99,Sub12_Trial99_1,1,6,6,-27.166462,True,1.809
12,0,09-May-2018,1,2,100,Sub12_Trial100_0,0,0,0,19.53784,True,0.802
12,0,09-May-2018,1,2,100,Sub12_Trial100_0,0,1,1,-62.379976,True,0.802
12,0,09-May-2018,1,2,100,Sub12_Trial100_0,0,2,2,24.375076,True,0.802
12,0,09-May-2018,1,2,100,Sub12_Trial100_0,0,3,3,-86.030477,True,0.802
12,0,09-May-2018,1,2,100,Sub12_Trial100_0,0,4,4,-45.519239,True,0.802
12,0,09-May-2018,1,2,100,Sub12_Trial100_0,0,5,5,67.470355,True,0.802
12,0,09-May-2018,1,2,100,Sub12_Trial100_0,0,6,6,16.612348,True,0.802
12,0,09-May-2018,1,2,100,Sub12_Trial100_1,1,0,0,-81.139709,False,0.802
12,0,09-May-2018,1,2,100,Sub12_Trial100_1,1,1,1,-46.121972,False,0.802
12,0,09-May-2018,1,2,100,Sub12_Trial100_1,1,2,2,99.512444,False,0.802
12,0,09-May-2018,1,2,100,Sub12_Trial100_1,1,3,3,185.907301,False,0.802
12,0,09-May-2018,1,2,100,Sub12_Trial100_1,1,4,4,33.804344,False,0.802
12,0,09-May-2018,1,2,100,Sub12_Trial100_1,1,5,5,-28.431706,False,0.802
12,0,09-May-2018,1,2,100,Sub12_Trial100_1,1,6,6,-111.607906,False,0.802
12,0,09-May-2018,1,3,101,Sub12_Trial101_0,0,0,0,148.134124,False,1.382
12,0,09-May-2018,1,3,101,Sub12_Trial101_0,0,1,1,-66.65923,False,1.382
12,0,09-May-2018,1,3,101,Sub12_Trial101_0,0,2,2,-108.198466,False,1.382
12,0,09-May-2018,1,3,101,Sub12_Trial101_0,0,3,3,79.139385,False,1.382
12,0,09-May-2018,1,3,101,Sub12_Trial101_0,0,4,4,176.574569,False,1.382
12,0,09-May-2018,1,3,101,Sub12_Trial101_0,0,5,5,-54.529985,False,1.382
12,0,09-May-2018,1,3,101,Sub12_Trial101_0,0,6,6,-114.940602,False,1.382
12,0,09-May-2018,1,3,101,Sub12_Trial101_1,1,0,0,21.992276,True,1.382
12,0,09-May-2018,1,3,101,Sub12_Trial101_1,1,1,1,-55.192592,True,1.382
12,0,09-May-2018,1,3,101,Sub12_Trial101_1,1,2,2,-76.907903,True,1.382
12,0,09-May-2018,1,3,101,Sub12_Trial101_1,1,3,3,4.494127,True,1.382
12,0,09-May-2018,1,3,101,Sub12_Trial101_1,1,4,4,-65.580858,True,1.382
12,0,09-May-2018,1,3,101,Sub12_Trial101_1,1,5,5,54.88474,True,1.382
12,0,09-May-2018,1,3,101,Sub12_Trial101_1,1,6,6,111.315343,True,1.382
12,0,09-May-2018,1,3,102,Sub12_Trial102_0,0,0,0,-191.103452,False,0.515
12,0,09-May-2018,1,3,102,Sub12_Trial102_0,0,1,1,-70.054158,False,0.515
12,0,09-May-2018,1,3,102,Sub12_Trial102_0,0,2,2,-174.811476,False,0.515
12,0,09-May-2018,1,3,102,Sub12_Trial102_0,0,3,3,-80.787483,False,0.515
12,0,09-May-2018,1,3,102,Sub12_Trial102_0,0,4,4,-42.795521,False,0.515
12,0,09-May-2018,1,3,102,Sub12_Trial102_0,0,5,5,-175.062625,False,0.515
12,0,09-May-2018,1,3,102,Sub12_Trial102_0,0,6,6,56.937571,False,0.515
12,0,09-May-2018,1,3,102,Sub12_Trial102_1,1,0,0,117.710352,True,0.515
12,0,09-May-2018,1,3,102,Sub12_Trial102_1,1,1,1,-140.139892,True,0.515
12,0,09-May-2018,1,3,102,Sub12_Trial102_1,1,2,2,-22.396565,True,0.515
12,0,09-May-2018,1,3,102,Sub12_Trial102_1,1,3,3,-164.37716,True,0.515
12,0,09-May-2018,1,3,102,Sub12_Trial102_1,1,4,4,141.970908,True,0.515
12,0,09-May-2018,1,3,102,Sub12_Trial102_1,1,5,5,2.098085,True,0.515
12,0,09-May-2018,1,3,102,Sub12_Trial102_1,1,6,6,83.520483,True,0.515
12,0,09-May-2018,1,3,103,Sub12_Trial103_0,0,0,0,-98.243526,False,1.362
12,0,09-May-2018,1,3,103,Sub12_Trial103_0,0,1,1,-56.475031,False,1.362
12,0,09-May-2018,1,3,103,Sub12_Trial103_0,0,2,2,163.064294,False,1.362
12,0,09-May-2018,1,3,103,Sub12_Trial103_0,0,3,3,-156.077857,False,1.362
12,0,09-May-2018,1,3,103,Sub12_Trial103_0,0,4,4,111.06263,False,1.362
12,0,09-May-2018,1,3,103,Sub12_Trial103_0,0,5,5,81.572648,False,1.362
12,0,09-May-2018,1,3,103,Sub12_Trial103_0,0,6,6,97.153105,False,1.362
12,0,09-May-2018,1,3,103,Sub12_Trial103_1,1,0,0,-108.288971,True,1.362
12,0,09-May-2018,1,3,103,Sub12_Trial103_1,1,1,1,0.396041,True,1.362
12,0,09-May-2018,1,3,103,Sub12_Trial103_1,1,2,2,39.289788,True,1.362
12,0,09-May-2018,1,3,103,Sub12_Trial103_1,1,3,3,18.993227,True,1.362
12,0,09-May-2018,1,3,103,Sub12_Trial103_1,1,4,4,-109.857819,True,1.362
12,0,09-May-2018,1,3,103,Sub12_Trial103_1,1,5,5,82.681623,True,1.362
12,0,09-May-2018,1,3,103,Sub12_Trial103_1,1,6,6,32.128669,True,1.362
12,0,09-May-2018,1,3,104,Sub12_Trial104_0,0,0,0,-133.482482,True,1.032
12,0,09-May-2018,1,3,104,Sub12_Trial104_0,0,1,1,5.835287,True,1.032
12,0,09-May-2018,1,3,104,Sub12_Trial104_0,0,2,2,135.956277,True,1.032
12,0,09-May-2018,1,3,104,Sub12_Trial104_0,0,3,3,-72.700809,True,1.032
12,0,09-May-2018,1,3,104,Sub12_Trial104_0,0,4,4,87.06731,True,1.032
12,0,09-May-2018,1,3,104,Sub12_Trial104_0,0,5,5,80.837869,True,1.032
12,0,09-May-2018,1,3,104,Sub12_Trial104_0,0,6,6,96.325414,True,1.032
12,0,09-May-2018,1,3,104,Sub12_Trial104_1,1,0,0,82.179554,False,1.032
12,0,09-May-2018,1,3,104,Sub12_Trial104_1,1,1,1,23.027344,False,1.032
12,0,09-May-2018,1,3,104,Sub12_Trial104_1,1,2,2,125.449221,False,1.032
12,0,09-May-2018,1,3,104,Sub12_Trial104_1,1,3,3,51.337611,False,1.032
12,0,09-May-2018,1,3,104,Sub12_Trial104_1,1,4,4,30.083325,False,1.032
12,0,09-May-2018,1,3,104,Sub12_Trial104_1,1,5,5,-24.31895,False,1.032
12,0,09-May-2018,1,3,104,Sub12_Trial104_1,1,6,6,57.727589,False,1.032
12,0,09-May-2018,1,3,105,Sub12_Trial105_0,0,0,0,-11.709318,False,0.456
12,0,09-May-2018,1,3,105,Sub12_Trial105_0,0,1,1,-121.399182,False,0.456
12,0,09-May-2018,1,3,105,Sub12_Trial105_0,0,2,2,-65.21075,False,0.456
12,0,09-May-2018,1,3,105,Sub12_Trial105_0,0,3,3,-16.663501,False,0.456
12,0,09-May-2018,1,3,105,Sub12_Trial105_0,0,4,4,-117.998242,False,0.456
12,0,09-May-2018,1,3,105,Sub12_Trial105_0,0,5,5,-60.149084,False,0.456
12,0,09-May-2018,1,3,105,Sub12_Trial105_0,0,6,6,-26.527116,False,0.456
12,0,09-May-2018,1,3,105,Sub12_Trial105_1,1,0,0,31.047052,True,0.456
12,0,09-May-2018,1,3,105,Sub12_Trial105_1,1,1,1,-30.733825,True,0.456
12,0,09-May-2018,1,3,105,Sub12_Trial105_1,1,2,2,135.813733,True,0.456
12,0,09-May-2018,1,3,105,Sub12_Trial105_1,1,3,3,-130.395752,True,0.456
12,0,09-May-2018,1,3,105,Sub12_Trial105_1,1,4,4,6.797549,True,0.456
12,0,09-May-2018,1,3,105,Sub12_Trial105_1,1,5,5,5.759548,True,0.456
12,0,09-May-2018,1,3,105,Sub12_Trial105_1,1,6,6,-53.118603,True,0.456
12,0,09-May-2018,1,3,106,Sub12_Trial106_0,0,0,0,-72.702439,True,0.62
12,0,09-May-2018,1,3,106,Sub12_Trial106_0,0,1,1,110.619126,True,0.62
