subj,trial,block,date,stim,stim_order,response,rt,age,sex,param_index,segment_time,pitch
20111971,0,0,2024-03-08T16:13:15.419Z,male_vraiment_flat_75.wav,0,True,2590,52,Homme,0,0.000000,-102.776376
20111971,0,0,2024-03-08T16:13:15.419Z,male_vraiment_flat_75.wav,0,True,2590,52,Homme,1,0.071043,141.116849
20111971,0,0,2024-03-08T16:13:15.419Z,male_vraiment_flat_75.wav,0,True,2590,52,Homme,2,0.142086,12.209007
20111971,0,0,2024-03-08T16:13:15.419Z,male_vraiment_flat_75.wav,0,True,2590,52,Homme,3,0.213129,-138.758513
20111971,0,0,2024-03-08T16:13:15.419Z,male_vraiment_flat_75.wav,0,True,2590,52,Homme,4,0.284172,4.940697
20111971,0,0,2024-03-08T16:13:15.419Z,male_vraiment_flat_75.wav,0,True,2590,52,Homme,5,0.355215,67.499606
20111971,0,0,2024-03-08T16:13:15.419Z,male_vraiment_flat_75.wav,0,True,2590,52,Homme,6,0.426259,61.725226
20111971,0,0,2024-03-08T16:13:15.419Z,male_vraiment_flat_146.wav,1,False,2590,52,Homme,0,0.000000,92.610651
20111971,0,0,2024-03-08T16:13:15.419Z,male_vraiment_flat_146.wav,1,False,2590,52,Homme,1,0.071043,40.250954
20111971,0,0,2024-03-08T16:13:15.419Z,male_vraiment_flat_146.wav,1,False,2590,52,Homme,2,0.142086,99.988333
20111971,0,0,2024-03-08T16:13:15.419Z,male_vraiment_flat_146.wav,1,False,2590,52,Homme,3,0.213129,115.543405
20111971,0,0,2024-03-08T16:13:15.419Z,male_vraiment_flat_146.wav,1,False,2590,52,Homme,4,0.284172,-3.607960
20111971,0,0,2024-03-08T16:13:15.419Z,male_vraiment_flat_146.wav,1,False,2590,52,Homme,5,0.355215,-91.494225
20111971,0,0,2024-03-08T16:13:15.419Z,male_vraiment_flat_146.wav,1,False,2590,52,Homme,6,0.426259,-109.708123
20111971,1,0,2024-03-08T16:13:15.419Z,male_vraiment_flat_93.wav,0,False,3677,52,Homme,0,0.000000,89.760217
20111971,1,0,2024-03-08T16:13:15.419Z,male_vraiment_flat_93.wav,0,False,3677,52,Homme,1,0.071043,18.591855
20111971,1,0,2024-03-08T16:13:15.419Z,male_vraiment_flat_93.wav,0,False,3677,52,Homme,2,0.142086,63.582537
20111971,1,0,2024-03-08T16:13:15.419Z,male_vraiment_flat_93.wav,0,False,3677,52,Homme,3,0.213129,147.491611
20111971,1,0,2024-03-08T16:13:15.419Z,male_vraiment_flat_93.wav,0,False,3677,52,Homme,4,0.284172,-113.128196
20111971,1,0,2024-03-08T16:13:15.419Z,male_vraiment_flat_93.wav,0,False,3677,52,Homme,5,0.355215,12.197118
20111971,1,0,2024-03-08T16:13:15.419Z,male_vraiment_flat_93.wav,0,False,3677,52,Homme,6,0.426259,-36.730637
20111971,1,0,2024-03-08T16:13:15.419Z,male_vraiment_flat_97.wav,1,True,3677,52,Homme,0,0.000000,-82.753908
20111971,1,0,2024-03-08T16:13:15.419Z,male_vraiment_flat_97.wav,1,True,3677,52,Homme,1,0.071043,-85.130238
20111971,1,0,2024-03-08T16:13:15.419Z,male_vraiment_flat_97.wav,1,True,3677,52,Homme,2,0.142086,-72.001027
20111971,1,0,2024-03-08T16:13:15.419Z,male_vraiment_flat_97.wav,1,True,3677,52,Homme,3,0.213129,-75.442204
20111971,1,0,2024-03-08T16:13:15.419Z,male_vraiment_flat_97.wav,1,True,3677,52,Homme,4,0.284172,147.061792
20111971,1,0,2024-03-08T16:13:15.419Z,male_vraiment_flat_97.wav,1,True,3677,52,Homme,5,0.355215,126.876511
20111971,1,0,2024-03-08T16:13:15.419Z,male_vraiment_flat_97.wav,1,True,3677,52,Homme,6,0.426259,96.208887
20111971,2,0,2024-03-08T16:13:15.419Z,male_vraiment_flat_147.wav,0,True,3390,52,Homme,0,0.000000,-109.572708
20111971,2,0,2024-03-08T16:13:15.419Z,male_vraiment_flat_147.wav,0,True,3390,52,Homme,1,0.071043,-50.943910
20111971,2,0,2024-03-08T16:13:15.419Z,male_vraiment_flat_147.wav,0,True,3390,52,Homme,2,0.142086,145.950821
20111971,2,0,2024-03-08T16:13:15.419Z,male_vraiment_flat_147.wav,0,True,3390,52,Homme,3,0.213129,141.813801
20111971,2,0,2024-03-08T16:13:15.419Z,male_vraiment_flat_147.wav,0,True,3390,52,Homme,4,0.284172,53.597843
20111971,2,0,2024-03-08T16:13:15.419Z,male_vraiment_flat_147.wav,0,True,3390,52,Homme,5,0.355215,-21.310214
20111971,2,0,2024-03-08T16:13:15.419Z,male_vraiment_flat_147.wav,0,True,3390,52,Homme,6,0.426259,-94.477021
20111971,2,0,2024-03-08T16:13:15.419Z,male_vraiment_flat_63.wav,1,False,3390,52,Homme,0,0.000000,106.489910
20111971,2,0,2024-03-08T16:13:15.419Z,male_vraiment_flat_63.wav,1,False,3390,52,Homme,1,0.071043,-87.090173
20111971,2,0,2024-03-08T16:13:15.419Z,male_vraiment_flat_63.wav,1,False,3390,52,Homme,2,0.142086,63.865444
20111971,2,0,2024-03-08T16:13:15.419Z,male_vraiment_flat_63.wav,1,False,3390,52,Homme,3,0.213129,-130.111458
20111971,2,0,2024-03-08T16:13:15.419Z,male_vraiment_flat_63.wav,1,False,3390,52,Homme,4,0.284172,45.870405
20111971,2,0,2024-03-08T16:13:15.419Z,male_vraiment_flat_63.wav,1,False,3390,52,Homme,5,0.355215,-60.104934
20111971,2,0,2024-03-08T16:13:15.419Z,male_vraiment_flat_63.wav,1,False,3390,52,Homme,6,0.426259,67.674520
20111971,3,0,2024-03-08T16:13:15.419Z,male_vraiment_flat_185.wav,0,False,1259,52,Homme,0,0.000000,7.537788
20111971,3,0,2024-03-08T16:13:15.419Z,male_vraiment_flat_185.wav,0,False,1259,52,Homme,1,0.071043,138.761382
20111971,3,0,2024-03-08T16:13:15.419Z,male_vraiment_flat_185.wav,0,False,1259,52,Homme,2,0.142086,88.970452
20111971,3,0,2024-03-08T16:13:15.419Z,male_vraiment_flat_185.wav,0,False,1259,52,Homme,3,0.213129,-106.980409
20111971,3,0,2024-03-08T16:13:15.419Z,male_vraiment_flat_185.wav,0,False,1259,52,Homme,4,0.284172,-72.334155
20111971,3,0,2024-03-08T16:13:15.419Z,male_vraiment_flat_185.wav,0,False,1259,52,Homme,5,0.355215,87.356426
20111971,3,0,2024-03-08T16:13:15.419Z,male_vraiment_flat_185.wav,0,False,1259,52,Homme,6,0.426259,90.917936
20111971,3,0,2024-03-08T16:13:15.419Z,male_vraiment_flat_199.wav,1,True,1259,52,Homme,0,0.000000,-30.664010
20111971,3,0,2024-03-08T16:13:15.419Z,male_vraiment_flat_199.wav,1,True,1259,52,Homme,1,0.071043,2.060872
20111971,3,0,2024-03-08T16:13:15.419Z,male_vraiment_flat_199.wav,1,True,1259,52,Homme,2,0.142086,-136.256691
20111971,3,0,2024-03-08T16:13:15.419Z,male_vraiment_flat_199.wav,1,True,1259,52,Homme,3,0.213129,20.654546
20111971,3,0,2024-03-08T16:13:15.419Z,male_vraiment_flat_199.wav,1,True,1259,52,Homme,4,0.284172,41.179386
20111971,3,0,2024-03-08T16:13:15.419Z,male_vraiment_flat_199.wav,1,True,1259,52,Homme,5,0.355215,1.343346
20111971,3,0,2024-03-08T16:13:15.419Z,male_vraiment_flat_199.wav,1,True,1259,52,Homme,6,0.426259,140.228288
20111971,4,0,2024-03-08T16:13:15.419Z,male_vraiment_flat_173.wav,0,True,1495,52,Homme,0,0.000000,-99.731768
20111971,4,0,2024-03-08T16:13:15.419Z,male_vraiment_flat_173.wav,0,True,1495,52,Homme,1,0.071043,-42.486722
20111971,4,0,2024-03-08T16:13:15.419Z,male_vraiment_flat_173.wav,0,True,1495,52,Homme,2,0.142086,49.610636
20111971,4,0,2024-03-08T16:13:15.419Z,male_vraiment_flat_173.wav,0,True,1495,52,Homme,3,0.213129,-115.961177
20111971,4,0,2024-03-08T16:13:15.419Z,male_vraiment_flat_173.wav,0,True,1495,52,Homme,4,0.284172,-68.693255
20111971,4,0,2024-03-08T16:13:15.419Z,male_vraiment_flat_173.wav,0,True,1495,52,Homme,5,0.355215,105.434903
20111971,4,0,2024-03-08T16:13:15.419Z,male_vraiment_flat_173.wav,0,True,1495,52,Homme,6,0.426259,5.248120
20111971,4,0,2024-03-08T16:13:15.419Z,male_vraiment_flat_8.wav,1,False,1495,52,Homme,0,0.000000,88.027847
20111971,4,0,2024-03-08T16:13:15.419Z,male_vraiment_flat_8.wav,1,False,1495,52,Homme,1,0.071043,-108.976227
20111971,4,0,2024-03-08T16:13:15.419Z,male_vraiment_flat_8.wav,1,False,1495,52,Homme,2,0.142086,36.591048
20111971,4,0,2024-03-08T16:13:15.419Z,male_vraiment_flat_8.wav,1,False,1495,52,Homme,3,0.213129,7.260113
20111971,4,0,2024-03-08T16:13:15.419Z,male_vraiment_flat_8.wav,1,False,1495,52,Homme,4,0.284172,-133.690195
20111971,4,0,2024-03-08T16:13:15.419Z,male_vraiment_flat_8.wav,1,False,1495,52,Homme,5,0.355215,9.464811
20111971,4,0,2024-03-08T16:13:15.419Z,male_vraiment_flat_8.wav,1,False,1495,52,Homme,6,0.426259,-67.780032
20111971,5,0,2024-03-08T16:13:15.419Z,male_vraiment_flat_81.wav,0,True,2259,52,Homme,0,0.000000,35.884214
20111971,5,0,2024-03-08T16:13:15.419Z,male_vraiment_flat_81.wav,0,True,2259,52,Homme,1,0.071043,19.404831
20111971,5,0,2024-03-08T16:13:15.419Z,male_vraiment_flat_81.wav,0,True,2259,52,Homme,2,0.142086,121.693264
20111971,5,0,2024-03-08T16:13:15.419Z,male_vraiment_flat_81.wav,0,True,2259,52,Homme,3,0.213129,29.127429
20111971,5,0,2024-03-08T16:13:15.419Z,male_vraiment_flat_81.wav,0,True,2259,52,Homme,4,0.284172,71.322417
20111971,5,0,2024-03-08T16:13:15.419Z,male_vraiment_flat_81.wav,0,True,2259,52,Homme,5,0.355215,138.687922
20111971,5,0,2024-03-08T16:13:15.419Z,male_vraiment_flat_81.wav,0,True,2259,52,Homme,6,0.426259,110.537915
20111971,5,0,2024-03-08T16:13:15.419Z,male_vraiment_flat_152.wav,1,False,2259,52,Homme,0,0.000000,-121.409464
20111971,5,0,2024-03-08T16:13:15.419Z,male_vraiment_flat_152.wav,1,False,2259,52,Homme,1,0.071043,26.229918
20111971,5,0,2024-03-08T16:13:15.419Z,male_vraiment_flat_152.wav,1,False,2259,52,Homme,2,0.142086,46.107283
20111971,5,0,2024-03-08T16:13:15.419Z,male_vraiment_flat_152.wav,1,False,2259,52,Homme,3,0.213129,-122.378424
20111971,5,0,2024-03-08T16:13:15.419Z,male_vraiment_flat_152.wav,1,False,2259,52,Homme,4,0.284172,64.911076
20111971,5,0,2024-03-08T16:13:15.419Z,male_vraiment_flat_152.wav,1,False,2259,52,Homme,5,0.355215,129.744578
20111971,5,0,2024-03-08T16:13:15.419Z,male_vraiment_flat_152.wav,1,False,2259,52,Homme,6,0.426259,51.632825
20111971,6,0,2024-03-08T16:13:15.419Z,male_vraiment_flat_2.wav,0,False,632,52,Homme,0,0.000000,-26.280713
20111971,6,0,2024-03-08T16:13:15.419Z,male_vraiment_flat_2.wav,0,False,632,52,Homme,1,0.071043,83.932106
20111971,6,0,2024-03-08T16:13:15.419Z,male_vraiment_flat_2.wav,0,False,632,52,Homme,2,0.142086,59.369452
20111971,6,0,2024-03-08T16:13:15.419Z,male_vraiment_flat_2.wav,0,False,632,52,Homme,3,0.213129,8.881156
20111971,6,0,2024-03-08T16:13:15.419Z,male_vraiment_flat_2.wav,0,False,632,52,Homme,4,0.284172,3.498385
20111971,6,0,2024-03-08T16:13:15.419Z,male_vraiment_flat_2.wav,0,False,632,52,Homme,5,0.355215,-133.430007
20111971,6,0,2024-03-08T16:13:15.419Z,male_vraiment_flat_2.wav,0,False,632,52,Homme,6,0.426259,94.606197
20111971,6,0,2024-03-08T16:13:15.419Z,male_vraiment_flat_151.wav,1,True,632,52,Homme,0,0.000000,-67.748525
20111971,6,0,2024-03-08T16:13:15.419Z,male_vraiment_flat_151.wav,1,True,632,52,Homme,1,0.071043,54.361913
20111971,6,0,2024-03-08T16:13:15.419Z,male_vraiment_flat_151.wav,1,True,632,52,Homme,2,0.142086,-48.392138
20111971,6,0,2024-03-08T16:13:15.419Z,male_vraiment_flat_151.wav,1,True,632,52,Homme,3,0.213129,35.257299
20111971,6,0,2024-03-08T16:13:15.419Z,male_vraiment_flat_151.wav,1,True,632,52,Homme,4,0.284172,30.428121
20111971,6,0,2024-03-08T16:13:15.419Z,male_vraiment_flat_151.wav,1,True,632,52,Homme,5,0.355215,28.910983
20111971,6,0,2024-03-08T16:13:15.419Z,male_vraiment_flat_151.wav,1,True,632,52,Homme,6,0.426259,-22.593444
20111971,7,0,2024-03-08T16:13:15.419Z,male_vraiment_flat_196.wav,0,True,603,52,Homme,0,0.000000,-42.342747
20111971,7,0,2024-03-08T16:13:15.419Z,male_vraiment_flat_196.wav,0,True,603,52,Homme,1,0.071043,-81.868734
20111971,7,0,2024-03-08T16:13:15.419Z,male_vraiment_flat_196.wav,0,True,603,52,Homme,2,0.142086,-18.906552
20111971,7,0,2024-03-08T16:13:15.419Z,male_vraiment_flat_196.wav,0,True,603,52,Homme,3,0.213129,-18.852092
20111971,7,0,2024-03-08T16:13:15.419Z,male_vraiment_flat_196.wav,0,True,603,52,Homme,4,0.284172,52.116670
20111971,7,0,2024-03-08T16:13:15.419Z,male_vraiment_flat_196.wav,0,True,603,52,Homme,5,0.355215,90.577409
20111971,7,0,2024-03-08T16:13:15.419Z,male_vraiment_flat_196.wav,0,True,603,52,Homme,6,0.426259,29.772760
20111971,7,0,2024-03-08T16:13:15.419Z,male_vraiment_flat_78.wav,1,False,603,52,Homme,0,0.000000,80.055785
20111971,7,0,2024-03-08T16:13:15.419Z,male_vraiment_flat_78.wav,1,False,603,52,Homme,1,0.071043,117.831593
20111971,7,0,2024-03-08T16:13:15.419Z,male_vraiment_flat_78.wav,1,False,603,52,Homme,2,0.142086,-32.666549
20111971,7,0,2024-03-08T16:13:15.419Z,male_vraiment_flat_78.wav,1,False,603,52,Homme,3,0.213129,67.905321
20111971,7,0,2024-03-08T16:13:15.419Z,male_vraiment_flat_78.wav,1,False,603,52,Homme,4,0.284172,84.716683
20111971,7,0,2024-03-08T16:13:15.419Z,male_vraiment_flat_78.wav,1,False,603,52,Homme,5,0.355215,30.832945
20111971,7,0,2024-03-08T16:13:15.419Z,male_vraiment_flat_78.wav,1,False,603,52,Homme,6,0.426259,87.837740
20111971,8,0,2024-03-08T16:13:15.419Z,male_vraiment_flat_0.wav,0,False,2039,52,Homme,0,0.000000,9.896041
20111971,8,0,2024-03-08T16:13:15.419Z,male_vraiment_flat_0.wav,0,False,2039,52,Homme,1,0.071043,101.528400
20111971,8,0,2024-03-08T16:13:15.419Z,male_vraiment_flat_0.wav,0,False,2039,52,Homme,2,0.142086,-68.097850
20111971,8,0,2024-03-08T16:13:15.419Z,male_vraiment_flat_0.wav,0,False,2039,52,Homme,3,0.213129,-142.658303
20111971,8,0,2024-03-08T16:13:15.419Z,male_vraiment_flat_0.wav,0,False,2039,52,Homme,4,0.284172,-120.248224
20111971,8,0,2024-03-08T16:13:15.419Z,male_vraiment_flat_0.wav,0,False,2039,52,Homme,5,0.355215,31.293845
20111971,8,0,2024-03-08T16:13:15.419Z,male_vraiment_flat_0.wav,0,False,2039,52,Homme,6,0.426259,-137.250528
20111971,8,0,2024-03-08T16:13:15.419Z,male_vraiment_flat_38.wav,1,True,2039,52,Homme,0,0.000000,144.136513
20111971,8,0,2024-03-08T16:13:15.419Z,male_vraiment_flat_38.wav,1,True,2039,52,Homme,1,0.071043,-64.103106
20111971,8,0,2024-03-08T16:13:15.419Z,male_vraiment_flat_38.wav,1,True,2039,52,Homme,2,0.142086,-98.673112
20111971,8,0,2024-03-08T16:13:15.419Z,male_vraiment_flat_38.wav,1,True,2039,52,Homme,3,0.213129,-23.920097
20111971,8,0,2024-03-08T16:13:15.419Z,male_vraiment_flat_38.wav,1,True,2039,52,Homme,4,0.284172,-49.884553
20111971,8,0,2024-03-08T16:13:15.419Z,male_vraiment_flat_38.wav,1,True,2039,52,Homme,5,0.355215,-104.927811
20111971,8,0,2024-03-08T16:13:15.419Z,male_vraiment_flat_38.wav,1,True,2039,52,Homme,6,0.426259,133.075001
20111971,9,0,2024-03-08T16:13:15.419Z,male_vraiment_flat_148.wav,0,False,1213,52,Homme,0,0.000000,-84.148504
20111971,9,0,2024-03-08T16:13:15.419Z,male_vraiment_flat_148.wav,0,False,1213,52,Homme,1,0.071043,116.395609
20111971,9,0,2024-03-08T16:13:15.419Z,male_vraiment_flat_148.wav,0,False,1213,52,Homme,2,0.142086,22.272455
20111971,9,0,2024-03-08T16:13:15.419Z,male_vraiment_flat_148.wav,0,False,1213,52,Homme,3,0.213129,-42.662376
20111971,9,0,2024-03-08T16:13:15.419Z,male_vraiment_flat_148.wav,0,False,1213,52,Homme,4,0.284172,44.974228
20111971,9,0,2024-03-08T16:13:15.419Z,male_vraiment_flat_148.wav,0,False,1213,52,Homme,5,0.355215,-100.807841
20111971,9,0,2024-03-08T16:13:15.419Z,male_vraiment_flat_148.wav,0,False,1213,52,Homme,6,0.426259,75.062158
20111971,9,0,2024-03-08T16:13:15.419Z,male_vraiment_flat_130.wav,1,True,1213,52,Homme,0,0.000000,-146.057737
20111971,9,0,2024-03-08T16:13:15.419Z,male_vraiment_flat_130.wav,1,True,1213,52,Homme,1,0.071043,-49.781911
20111971,9,0,2024-03-08T16:13:15.419Z,male_vraiment_flat_130.wav,1,True,1213,52,Homme,2,0.142086,74.893740
20111971,9,0,2024-03-08T16:13:15.419Z,male_vraiment_flat_130.wav,1,True,1213,52,Homme,3,0.213129,-14.505163
20111971,9,0,2024-03-08T16:13:15.419Z,male_vraiment_flat_130.wav,1,True,1213,52,Homme,4,0.284172,16.979815
20111971,9,0,2024-03-08T16:13:15.419Z,male_vraiment_flat_130.wav,1,True,1213,52,Homme,5,0.355215,-66.512052
20111971,9,0,2024-03-08T16:13:15.419Z,male_vraiment_flat_130.wav,1,True,1213,52,Homme,6,0.426259,-59.569067
20111971,10,0,2024-03-08T16:13:15.419Z,male_vraiment_flat_94.wav,0,False,628,52,Homme,0,0.000000,-0.652128
20111971,10,0,2024-03-08T16:13:15.419Z,male_vraiment_flat_94.wav,0,False,628,52,Homme,1,0.071043,97.860897
20111971,10,0,2024-03-08T16:13:15.419Z,male_vraiment_flat_94.wav,0,False,628,52,Homme,2,0.142086,48.932214
20111971,10,0,2024-03-08T16:13:15.419Z,male_vraiment_flat_94.wav,0,False,628,52,Homme,3,0.213129,-23.097711
20111971,10,0,2024-03-08T16:13:15.419Z,male_vraiment_flat_94.wav,0,False,628,52,Homme,4,0.284172,-47.481676
20111971,10,0,2024-03-08T16:13:15.419Z,male_vraiment_flat_94.wav,0,False,628,52,Homme,5,0.355215,-120.450621
20111971,10,0,2024-03-08T16:13:15.419Z,male_vraiment_flat_94.wav,0,False,628,52,Homme,6,0.426259,-116.887604
20111971,10,0,2024-03-08T16:13:15.419Z,male_vraiment_flat_60.wav,1,True,628,52,Homme,0,0.000000,-89.296237
20111971,10,0,2024-03-08T16:13:15.419Z,male_vraiment_flat_60.wav,1,True,628,52,Homme,1,0.071043,0.647875
20111971,10,0,2024-03-08T16:13:15.419Z,male_vraiment_flat_60.wav,1,True,628,52,Homme,2,0.142086,-124.228045
20111971,10,0,2024-03-08T16:13:15.419Z,male_vraiment_flat_60.wav,1,True,628,52,Homme,3,0.213129,-147.365900
20111971,10,0,2024-03-08T16:13:15.419Z,male_vraiment_flat_60.wav,1,True,628,52,Homme,4,0.284172,-7.428030
20111971,10,0,2024-03-08T16:13:15.419Z,male_vraiment_flat_60.wav,1,True,628,52,Homme,5,0.355215,-42.828577
20111971,10,0,2024-03-08T16:13:15.419Z,male_vraiment_flat_60.wav,1,True,628,52,Homme,6,0.426259,-114.882786
20111971,11,0,2024-03-08T16:13:15.419Z,male_vraiment_flat_16.wav,0,True,2345,52,Homme,0,0.000000,141.243943
20111971,11,0,2024-03-08T16:13:15.419Z,male_vraiment_flat_16.wav,0,True,2345,52,Homme,1,0.071043,-34.322435
20111971,11,0,2024-03-08T16:13:15.419Z,male_vraiment_flat_16.wav,0,True,2345,52,Homme,2,0.142086,10.018864
20111971,11,0,2024-03-08T16:13:15.419Z,male_vraiment_flat_16.wav,0,True,2345,52,Homme,3,0.213129,-24.066951
20111971,11,0,2024-03-08T16:13:15.419Z,male_vraiment_flat_16.wav,0,True,2345,52,Homme,4,0.284172,45.502655
20111971,11,0,2024-03-08T16:13:15.419Z,male_vraiment_flat_16.wav,0,True,2345,52,Homme,5,0.355215,107.276086
20111971,11,0,2024-03-08T16:13:15.419Z,male_vraiment_flat_16.wav,0,True,2345,52,Homme,6,0.426259,58.110380
20111971,11,0,2024-03-08T16:13:15.419Z,male_vraiment_flat_192.wav,1,False,2345,52,Homme,0,0.000000,46.973159
20111971,11,0,2024-03-08T16:13:15.419Z,male_vraiment_flat_192.wav,1,False,2345,52,Homme,1,0.071043,-61.711820
20111971,11,0,2024-03-08T16:13:15.419Z,male_vraiment_flat_192.wav,1,False,2345,52,Homme,2,0.142086,14.836428
20111971,11,0,2024-03-08T16:13:15.419Z,male_vraiment_flat_192.wav,1,False,2345,52,Homme,3,0.213129,30.862549
20111971,11,0,2024-03-08T16:13:15.419Z,male_vraiment_flat_192.wav,1,False,2345,52,Homme,4,0.284172,28.459321
20111971,11,0,2024-03-08T16:13:15.419Z,male_vraiment_flat_192.wav,1,False,2345,52,Homme,5,0.355215,2.114815
20111971,11,0,2024-03-08T16:13:15.419Z,male_vraiment_flat_192.wav,1,False,2345,52,Homme,6,0.426259,86.651936
20111971,12,0,2024-03-08T16:13:15.419Z,male_vraiment_flat_25.wav,0,True,1081,52,Homme,0,0.000000,-129.422108
20111971,12,0,2024-03-08T16:13:15.419Z,male_vraiment_flat_25.wav,0,True,1081,52,Homme,1,0.071043,-12.331663
20111971,12,0,2024-03-08T16:13:15.419Z,male_vraiment_flat_25.wav,0,True,1081,52,Homme,2,0.142086,-97.065740
20111971,12,0,2024-03-08T16:13:15.419Z,male_vraiment_flat_25.wav,0,True,1081,52,Homme,3,0.213129,-6.253122
20111971,12,0,2024-03-08T16:13:15.419Z,male_vraiment_flat_25.wav,0,True,1081,52,Homme,4,0.284172,31.933743
20111971,12,0,2024-03-08T16:13:15.419Z,male_vraiment_flat_25.wav,0,True,1081,52,Homme,5,0.355215,-58.415946
20111971,12,0,2024-03-08T16:13:15.419Z,male_vraiment_flat_25.wav,0,True,1081,52,Homme,6,0.426259,117.143598
20111971,12,0,2024-03-08T16:13:15.419Z,male_vraiment_flat_76.wav,1,False,1081,52,Homme,0,0.000000,-119.681125
20111971,12,0,2024-03-08T16:13:15.419Z,male_vraiment_flat_76.wav,1,False,1081,52,Homme,1,0.071043,66.441865
20111971,12,0,2024-03-08T16:13:15.419Z,male_vraiment_flat_76.wav,1,False,1081,52,Homme,2,0.142086,-95.265303
20111971,12,0,2024-03-08T16:13:15.419Z,male_vraiment_flat_76.wav,1,False,1081,52,Homme,3,0.213129,7.780656
20111971,12,0,2024-03-08T16:13:15.419Z,male_vraiment_flat_76.wav,1,False,1081,52,Homme,4,0.284172,-90.368576
20111971,12,0,2024-03-08T16:13:15.419Z,male_vraiment_flat_76.wav,1,False,1081,52,Homme,5,0.355215,-64.528472
20111971,12,0,2024-03-08T16:13:15.419Z,male_vraiment_flat_76.wav,1,False,1081,52,Homme,6,0.426259,-137.293439
20111971,13,0,2024-03-08T16:13:15.419Z,male_vraiment_flat_164.wav,0,False,1065,52,Homme,0,0.000000,-99.029475
20111971,13,0,2024-03-08T16:13:15.419Z,male_vraiment_flat_164.wav,0,False,1065,52,Homme,1,0.071043,-83.219544
20111971,13,0,2024-03-08T16:13:15.419Z,male_vraiment_flat_164.wav,0,False,1065,52,Homme,2,0.142086,-76.160804
20111971,13,0,2024-03-08T16:13:15.419Z,male_vraiment_flat_164.wav,0,False,1065,52,Homme,3,0.213129,-60.412119
20111971,13,0,2024-03-08T16:13:15.419Z,male_vraiment_flat_164.wav,0,False,1065,52,Homme,4,0.284172,-135.438027
20111971,13,0,2024-03-08T16:13:15.419Z,male_vraiment_flat_164.wav,0,False,1065,52,Homme,5,0.355215,-30.546522
20111971,13,0,2024-03-08T16:13:15.419Z,male_vraiment_flat_164.wav,0,False,1065,52,Homme,6,0.426259,-142.367635
20111971,13,0,2024-03-08T16:13:15.419Z,male_vraiment_flat_121.wav,1,True,1065,52,Homme,0,0.000000,-58.637887
20111971,13,0,2024-03-08T16:13:15.419Z,male_vraiment_flat_121.wav,1,True,1065,52,Homme,1,0.071043,-104.347196
20111971,13,0,2024-03-08T16:13:15.419Z,male_vraiment_flat_121.wav,1,True,1065,52,Homme,2,0.142086,149.905377
20111971,13,0,2024-03-08T16:13:15.419Z,male_vraiment_flat_121.wav,1,True,1065,52,Homme,3,0.213129,-98.681631
20111971,13,0,2024-03-08T16:13:15.419Z,male_vraiment_flat_121.wav,1,True,1065,52,Homme,4,0.284172,-147.265274
20111971,13,0,2024-03-08T16:13:15.419Z,male_vraiment_flat_121.wav,1,True,1065,52,Homme,5,0.355215,64.587538
20111971,13,0,2024-03-08T16:13:15.419Z,male_vraiment_flat_121.wav,1,True,1065,52,Homme,6,0.426259,26.674605
20111971,14,0,2024-03-08T16:13:15.419Z,male_vraiment_flat_106.wav,0,True,799,52,Homme,0,0.000000,13.442505
20111971,14,0,2024-03-08T16:13:15.419Z,male_vraiment_flat_106.wav,0,True,799,52,Homme,1,0.071043,67.880832
20111971,14,0,2024-03-08T16:13:15.419Z,male_vraiment_flat_106.wav,0,True,799,52,Homme,2,0.142086,105.927648
20111971,14,0,2024-03-08T16:13:15.419Z,male_vraiment_flat_106.wav,0,True,799,52,Homme,3,0.213129,65.041696
20111971,14,0,2024-03-08T16:13:15.419Z,male_vraiment_flat_106.wav,0,True,799,52,Homme,4,0.284172,-59.466654
20111971,14,0,2024-03-08T16:13:15.419Z,male_vraiment_flat_106.wav,0,True,799,52,Homme,5,0.355215,55.710963
20111971,14,0,2024-03-08T16:13:15.419Z,male_vraiment_flat_106.wav,0,True,799,52,Homme,6,0.426259,127.964857
20111971,14,0,2024-03-08T16:13:15.419Z,male_vraiment_flat_140.wav,1,False,799,52,Homme,0,0.000000,-149.304179
20111971,14,0,2024-03-08T16:13:15.419Z,male_vraiment_flat_140.wav,1,False,799,52,Homme,1,0.071043,148.600586
20111971,14,0,2024-03-08T16:13:15.419Z,male_vraiment_flat_140.wav,1,False,799,52,Homme,2,0.142086,-115.715849
20111971,14,0,2024-03-08T16:13:15.419Z,male_vraiment_flat_140.wav,1,False,799,52,Homme,3,0.213129,139.265939
20111971,14,0,2024-03-08T16:13:15.419Z,male_vraiment_flat_140.wav,1,False,799,52,Homme,4,0.284172,45.121427
20111971,14,0,2024-03-08T16:13:15.419Z,male_vraiment_flat_140.wav,1,False,799,52,Homme,5,0.355215,-93.318951
20111971,14,0,2024-03-08T16:13:15.419Z,male_vraiment_flat_140.wav,1,False,799,52,Homme,6,0.426259,-66.215565
20111971,15,0,2024-03-08T16:13:15.419Z,male_vraiment_flat_46.wav,0,False,1473,52,Homme,0,0.000000,48.231571
20111971,15,0,2024-03-08T16:13:15.419Z,male_vraiment_flat_46.wav,0,False,1473,52,Homme,1,0.071043,-13.386862
20111971,15,0,2024-03-08T16:13:15.419Z,male_vraiment_flat_46.wav,0,False,1473,52,Homme,2,0.142086,107.175029
20111971,15,0,2024-03-08T16:13:15.419Z,male_vraiment_flat_46.wav,0,False,1473,52,Homme,3,0.213129,24.056117
20111971,15,0,2024-03-08T16:13:15.419Z,male_vraiment_flat_46.wav,0,False,1473,52,Homme,4,0.284172,72.951541
20111971,15,0,2024-03-08T16:13:15.419Z,male_vraiment_flat_46.wav,0,False,1473,52,Homme,5,0.355215,123.539508
20111971,15,0,2024-03-08T16:13:15.419Z,male_vraiment_flat_46.wav,0,False,1473,52,Homme,6,0.426259,50.410407
20111971,15,0,2024-03-08T16:13:15.419Z,male_vraiment_flat_69.wav,1,True,1473,52,Homme,0,0.000000,-3.170538
20111971,15,0,2024-03-08T16:13:15.419Z,male_vraiment_flat_69.wav,1,True,1473,52,Homme,1,0.071043,35.318973
20111971,15,0,2024-03-08T16:13:15.419Z,male_vraiment_flat_69.wav,1,True,1473,52,Homme,2,0.142086,9.650212
20111971,15,0,2024-03-08T16:13:15.419Z,male_vraiment_flat_69.wav,1,True,1473,52,Homme,3,0.213129,140.461686
20111971,15,0,2024-03-08T16:13:15.419Z,male_vraiment_flat_69.wav,1,True,1473,52,Homme,4,0.284172,-72.489288
20111971,15,0,2024-03-08T16:13:15.419Z,male_vraiment_flat_69.wav,1,True,1473,52,Homme,5,0.355215,-111.567531
20111971,15,0,2024-03-08T16:13:15.419Z,male_vraiment_flat_69.wav,1,True,1473,52,Homme,6,0.426259,62.840145
20111971,16,0,2024-03-08T16:13:15.419Z,male_vraiment_flat_31.wav,0,True,2692,52,Homme,0,0.000000,-118.123136
20111971,16,0,2024-03-08T16:13:15.419Z,male_vraiment_flat_31.wav,0,True,2692,52,Homme,1,0.071043,-54.324615
20111971,16,0,2024-03-08T16:13:15.419Z,male_vraiment_flat_31.wav,0,True,2692,52,Homme,2,0.142086,-56.463303
20111971,16,0,2024-03-08T16:13:15.419Z,male_vraiment_flat_31.wav,0,True,2692,52,Homme,3,0.213129,65.563679
20111971,16,0,2024-03-08T16:13:15.419Z,male_vraiment_flat_31.wav,0,True,2692,52,Homme,4,0.284172,91.438424
20111971,16,0,2024-03-08T16:13:15.419Z,male_vraiment_flat_31.wav,0,True,2692,52,Homme,5,0.355215,-2.661707
20111971,16,0,2024-03-08T16:13:15.419Z,male_vraiment_flat_31.wav,0,True,2692,52,Homme,6,0.426259,-48.318391
20111971,16,0,2024-03-08T16:13:15.419Z,male_vraiment_flat_67.wav,1,False,2692,52,Homme,0,0.000000,3.293259
20111971,16,0,2024-03-08T16:13:15.419Z,male_vraiment_flat_67.wav,1,False,2692,52,Homme,1,0.071043,-46.547477
20111971,16,0,2024-03-08T16:13:15.419Z,male_vraiment_flat_67.wav,1,False,2692,52,Homme,2,0.142086,54.624069
20111971,16,0,2024-03-08T16:13:15.419Z,male_vraiment_flat_67.wav,1,False,2692,52,Homme,3,0.213129,-46.025939
20111971,16,0,2024-03-08T16:13:15.419Z,male_vraiment_flat_67.wav,1,False,2692,52,Homme,4,0.284172,70.704507
20111971,16,0,2024-03-08T16:13:15.419Z,male_vraiment_flat_67.wav,1,False,2692,52,Homme,5,0.355215,-47.199237
20111971,16,0,2024-03-08T16:13:15.419Z,male_vraiment_flat_67.wav,1,False,2692,52,Homme,6,0.426259,147.575842
20111971,17,0,2024-03-08T16:13:15.419Z,male_vraiment_flat_111.wav,0,True,2453,52,Homme,0,0.000000,-76.898484
20111971,17,0,2024-03-08T16:13:15.419Z,male_vraiment_flat_111.wav,0,True,2453,52,Homme,1,0.071043,128.576704
20111971,17,0,2024-03-08T16:13:15.419Z,male_vraiment_flat_111.wav,0,True,2453,52,Homme,2,0.142086,84.475821
20111971,17,0,2024-03-08T16:13:15.419Z,male_vraiment_flat_111.wav,0,True,2453,52,Homme,3,0.213129,13.962019
20111971,17,0,2024-03-08T16:13:15.419Z,male_vraiment_flat_111.wav,0,True,2453,52,Homme,4,0.284172,80.950376
20111971,17,0,2024-03-08T16:13:15.419Z,male_vraiment_flat_111.wav,0,True,2453,52,Homme,5,0.355215,105.627204
20111971,17,0,2024-03-08T16:13:15.419Z,male_vraiment_flat_111.wav,0,True,2453,52,Homme,6,0.426259,86.259873
20111971,17,0,2024-03-08T16:13:15.419Z,male_vraiment_flat_14.wav,1,False,2453,52,Homme,0,0.000000,-139.491371
20111971,17,0,2024-03-08T16:13:15.419Z,male_vraiment_flat_14.wav,1,False,2453,52,Homme,1,0.071043,-89.621492
20111971,17,0,2024-03-08T16:13:15.419Z,male_vraiment_flat_14.wav,1,False,2453,52,Homme,2,0.142086,-85.009614
20111971,17,0,2024-03-08T16:13:15.419Z,male_vraiment_flat_14.wav,1,False,2453,52,Homme,3,0.213129,-29.902058
20111971,17,0,2024-03-08T16:13:15.419Z,male_vraiment_flat_14.wav,1,False,2453,52,Homme,4,0.284172,-86.665261
20111971,17,0,2024-03-08T16:13:15.419Z,male_vraiment_flat_14.wav,1,False,2453,52,Homme,5,0.355215,27.459037
20111971,17,0,2024-03-08T16:13:15.419Z,male_vraiment_flat_14.wav,1,False,2453,52,Homme,6,0.426259,33.245669
20111971,18,0,2024-03-08T16:13:15.419Z,male_vraiment_flat_155.wav,0,True,1038,52,Homme,0,0.000000,-140.284917
20111971,18,0,2024-03-08T16:13:15.419Z,male_vraiment_flat_155.wav,0,True,1038,52,Homme,1,0.071043,56.043903
20111971,18,0,2024-03-08T16:13:15.419Z,male_vraiment_flat_155.wav,0,True,1038,52,Homme,2,0.142086,-2.142699
20111971,18,0,2024-03-08T16:13:15.419Z,male_vraiment_flat_155.wav,0,True,1038,52,Homme,3,0.213129,-41.999388
20111971,18,0,2024-03-08T16:13:15.419Z,male_vraiment_flat_155.wav,0,True,1038,52,Homme,4,0.284172,-69.522618
20111971,18,0,2024-03-08T16:13:15.419Z,male_vraiment_flat_155.wav,0,True,1038,52,Homme,5,0.355215,29.697532
20111971,18,0,2024-03-08T16:13:15.419Z,male_vraiment_flat_155.wav,0,True,1038,52,Homme,6,0.426259,40.565741
20111971,18,0,2024-03-08T16:13:15.419Z,male_vraiment_flat_126.wav,1,False,1038,52,Homme,0,0.000000,23.450520
20111971,18,0,2024-03-08T16:13:15.419Z,male_vraiment_flat_126.wav,1,False,1038,52,Homme,1,0.071043,102.584681
20111971,18,0,2024-03-08T16:13:15.419Z,male_vraiment_flat_126.wav,1,False,1038,52,Homme,2,0.142086,38.224300
20111971,18,0,2024-03-08T16:13:15.419Z,male_vraiment_flat_126.wav,1,False,1038,52,Homme,3,0.213129,-16.427695
20111971,18,0,2024-03-08T16:13:15.419Z,male_vraiment_flat_126.wav,1,False,1038,52,Homme,4,0.284172,7.421137
20111971,18,0,2024-03-08T16:13:15.419Z,male_vraiment_flat_126.wav,1,False,1038,52,Homme,5,0.355215,-9.369055
20111971,18,0,2024-03-08T16:13:15.419Z,male_vraiment_flat_126.wav,1,False,1038,52,Homme,6,0.426259,-89.176758
20111971,19,0,2024-03-08T16:13:15.419Z,male_vraiment_flat_170.wav,0,False,575,52,Homme,0,0.000000,88.489327
20111971,19,0,2024-03-08T16:13:15.419Z,male_vraiment_flat_170.wav,0,False,575,52,Homme,1,0.071043,-76.759591
20111971,19,0,2024-03-08T16:13:15.419Z,male_vraiment_flat_170.wav,0,False,575,52,Homme,2,0.142086,131.535458
20111971,19,0,2024-03-08T16:13:15.419Z,male_vraiment_flat_170.wav,0,False,575,52,Homme,3,0.213129,-66.304272
20111971,19,0,2024-03-08T16:13:15.419Z,male_vraiment_flat_170.wav,0,False,575,52,Homme,4,0.284172,82.842237
20111971,19,0,2024-03-08T16:13:15.419Z,male_vraiment_flat_170.wav,0,False,575,52,Homme,5,0.355215,39.682087
20111971,19,0,2024-03-08T16:13:15.419Z,male_vraiment_flat_170.wav,0,False,575,52,Homme,6,0.426259,-39.313076
20111971,19,0,2024-03-08T16:13:15.419Z,male_vraiment_flat_144.wav,1,True,575,52,Homme,0,0.000000,-68.167624
20111971,19,0,2024-03-08T16:13:15.419Z,male_vraiment_flat_144.wav,1,True,575,52,Homme,1,0.071043,-79.458647
20111971,19,0,2024-03-08T16:13:15.419Z,male_vraiment_flat_144.wav,1,True,575,52,Homme,2,0.142086,-79.660425
20111971,19,0,2024-03-08T16:13:15.419Z,male_vraiment_flat_144.wav,1,True,575,52,Homme,3,0.213129,60.124898
20111971,19,0,2024-03-08T16:13:15.419Z,male_vraiment_flat_144.wav,1,True,575,52,Homme,4,0.284172,21.367664
20111971,19,0,2024-03-08T16:13:15.419Z,male_vraiment_flat_144.wav,1,True,575,52,Homme,5,0.355215,44.158096
20111971,19,0,2024-03-08T16:13:15.419Z,male_vraiment_flat_144.wav,1,True,575,52,Homme,6,0.426259,60.089593
20111971,20,0,2024-03-08T16:13:15.419Z,male_vraiment_flat_142.wav,0,False,466,52,Homme,0,0.000000,129.881009
20111971,20,0,2024-03-08T16:13:15.419Z,male_vraiment_flat_142.wav,0,False,466,52,Homme,1,0.071043,116.596688
20111971,20,0,2024-03-08T16:13:15.419Z,male_vraiment_flat_142.wav,0,False,466,52,Homme,2,0.142086,48.203333
20111971,20,0,2024-03-08T16:13:15.419Z,male_vraiment_flat_142.wav,0,False,466,52,Homme,3,0.213129,100.883154
20111971,20,0,2024-03-08T16:13:15.419Z,male_vraiment_flat_142.wav,0,False,466,52,Homme,4,0.284172,-39.625904
20111971,20,0,2024-03-08T16:13:15.419Z,male_vraiment_flat_142.wav,0,False,466,52,Homme,5,0.355215,-141.802649
20111971,20,0,2024-03-08T16:13:15.419Z,male_vraiment_flat_142.wav,0,False,466,52,Homme,6,0.426259,58.691582
20111971,20,0,2024-03-08T16:13:15.419Z,male_vraiment_flat_166.wav,1,True,466,52,Homme,0,0.000000,40.484109
20111971,20,0,2024-03-08T16:13:15.419Z,male_vraiment_flat_166.wav,1,True,466,52,Homme,1,0.071043,-10.250913
20111971,20,0,2024-03-08T16:13:15.419Z,male_vraiment_flat_166.wav,1,True,466,52,Homme,2,0.142086,-109.726305
20111971,20,0,2024-03-08T16:13:15.419Z,male_vraiment_flat_166.wav,1,True,466,52,Homme,3,0.213129,-32.205058
20111971,20,0,2024-03-08T16:13:15.419Z,male_vraiment_flat_166.wav,1,True,466,52,Homme,4,0.284172,141.461363
20111971,20,0,2024-03-08T16:13:15.419Z,male_vraiment_flat_166.wav,1,True,466,52,Homme,5,0.355215,65.199031
20111971,20,0,2024-03-08T16:13:15.419Z,male_vraiment_flat_166.wav,1,True,466,52,Homme,6,0.426259,-54.014549
20111971,21,0,2024-03-08T16:13:15.419Z,male_vraiment_flat_197.wav,0,False,683,52,Homme,0,0.000000,7.012988
20111971,21,0,2024-03-08T16:13:15.419Z,male_vraiment_flat_197.wav,0,False,683,52,Homme,1,0.071043,64.551185
20111971,21,0,2024-03-08T16:13:15.419Z,male_vraiment_flat_197.wav,0,False,683,52,Homme,2,0.142086,-65.392523
20111971,21,0,2024-03-08T16:13:15.419Z,male_vraiment_flat_197.wav,0,False,683,52,Homme,3,0.213129,18.180118
20111971,21,0,2024-03-08T16:13:15.419Z,male_vraiment_flat_197.wav,0,False,683,52,Homme,4,0.284172,-30.775220
20111971,21,0,2024-03-08T16:13:15.419Z,male_vraiment_flat_197.wav,0,False,683,52,Homme,5,0.355215,95.802549
20111971,21,0,2024-03-08T16:13:15.419Z,male_vraiment_flat_197.wav,0,False,683,52,Homme,6,0.426259,-129.373786
20111971,21,0,2024-03-08T16:13:15.419Z,male_vraiment_flat_191.wav,1,True,683,52,Homme,0,0.000000,-3.321474
20111971,21,0,2024-03-08T16:13:15.419Z,male_vraiment_flat_191.wav,1,True,683,52,Homme,1,0.071043,110.638678
20111971,21,0,2024-03-08T16:13:15.419Z,male_vraiment_flat_191.wav,1,True,683,52,Homme,2,0.142086,142.170563
20111971,21,0,2024-03-08T16:13:15.419Z,male_vraiment_flat_191.wav,1,True,683,52,Homme,3,0.213129,-110.761685
20111971,21,0,2024-03-08T16:13:15.419Z,male_vraiment_flat_191.wav,1,True,683,52,Homme,4,0.284172,23.931067
20111971,21,0,2024-03-08T16:13:15.419Z,male_vraiment_flat_191.wav,1,True,683,52,Homme,5,0.355215,-28.623113
20111971,21,0,2024-03-08T16:13:15.419Z,male_vraiment_flat_191.wav,1,True,683,52,Homme,6,0.426259,68.073722
20111971,22,0,2024-03-08T16:13:15.419Z,male_vraiment_flat_108.wav,0,False,943,52,Homme,0,0.000000,92.203113
20111971,22,0,2024-03-08T16:13:15.419Z,male_vraiment_flat_108.wav,0,False,943,52,Homme,1,0.071043,-74.681876
20111971,22,0,2024-03-08T16:13:15.419Z,male_vraiment_flat_108.wav,0,False,943,52,Homme,2,0.142086,-18.773488
20111971,22,0,2024-03-08T16:13:15.419Z,male_vraiment_flat_108.wav,0,False,943,52,Homme,3,0.213129,73.054230
20111971,22,0,2024-03-08T16:13:15.419Z,male_vraiment_flat_108.wav,0,False,943,52,Homme,4,0.284172,-72.824646
20111971,22,0,2024-03-08T16:13:15.419Z,male_vraiment_flat_108.wav,0,False,943,52,Homme,5,0.355215,140.895697
20111971,22,0,2024-03-08T16:13:15.419Z,male_vraiment_flat_108.wav,0,False,943,52,Homme,6,0.426259,13.161932
20111971,22,0,2024-03-08T16:13:15.419Z,male_vraiment_flat_114.wav,1,True,943,52,Homme,0,0.000000,-107.614700
20111971,22,0,2024-03-08T16:13:15.419Z,male_vraiment_flat_114.wav,1,True,943,52,Homme,1,0.071043,-121.606705
20111971,22,0,2024-03-08T16:13:15.419Z,male_vraiment_flat_114.wav,1,True,943,52,Homme,2,0.142086,26.820871
20111971,22,0,2024-03-08T16:13:15.419Z,male_vraiment_flat_114.wav,1,True,943,52,Homme,3,0.213129,42.957584
20111971,22,0,2024-03-08T16:13:15.419Z,male_vraiment_flat_114.wav,1,True,943,52,Homme,4,0.284172,-48.053802
20111971,22,0,2024-03-08T16:13:15.419Z,male_vraiment_flat_114.wav,1,True,943,52,Homme,5,0.355215,-10.474627
20111971,22,0,2024-03-08T16:13:15.419Z,male_vraiment_flat_114.wav,1,True,943,52,Homme,6,0.426259,-131.069216
20111971,23,0,2024-03-08T16:13:15.419Z,male_vraiment_flat_34.wav,0,False,357,52,Homme,0,0.000000,55.759121
20111971,23,0,2024-03-08T16:13:15.419Z,male_vraiment_flat_34.wav,0,False,357,52,Homme,1,0.071043,56.428420
20111971,23,0,2024-03-08T16:13:15.419Z,male_vraiment_flat_34.wav,0,False,357,52,Homme,2,0.142086,-58.759553
20111971,23,0,2024-03-08T16:13:15.419Z,male_vraiment_flat_34.wav,0,False,357,52,Homme,3,0.213129,-145.130290
20111971,23,0,2024-03-08T16:13:15.419Z,male_vraiment_flat_34.wav,0,False,357,52,Homme,4,0.284172,109.056087
20111971,23,0,2024-03-08T16:13:15.419Z,male_vraiment_flat_34.wav,0,False,357,52,Homme,5,0.355215,-133.281135
20111971,23,0,2024-03-08T16:13:15.419Z,male_vraiment_flat_34.wav,0,False,357,52,Homme,6,0.426259,-126.261912
20111971,23,0,2024-03-08T16:13:15.419Z,male_vraiment_flat_179.wav,1,True,357,52,Homme,0,0.000000,31.793897
20111971,23,0,2024-03-08T16:13:15.419Z,male_vraiment_flat_179.wav,1,True,357,52,Homme,1,0.071043,-7.766660
20111971,23,0,2024-03-08T16:13:15.419Z,male_vraiment_flat_179.wav,1,True,357,52,Homme,2,0.142086,14.202215
20111971,23,0,2024-03-08T16:13:15.419Z,male_vraiment_flat_179.wav,1,True,357,52,Homme,3,0.213129,-28.726082
20111971,23,0,2024-03-08T16:13:15.419Z,male_vraiment_flat_179.wav,1,True,357,52,Homme,4,0.284172,-38.298342
20111971,23,0,2024-03-08T16:13:15.419Z,male_vraiment_flat_179.wav,1,True,357,52,Homme,5,0.355215,97.025797
20111971,23,0,2024-03-08T16:13:15.419Z,male_vraiment_flat_179.wav,1,True,357,52,Homme,6,0.426259,-148.112175
20111971,24,0,2024-03-08T16:13:15.419Z,male_vraiment_flat_129.wav,0,False,550,52,Homme,0,0.000000,121.236122
20111971,24,0,2024-03-08T16:13:15.419Z,male_vraiment_flat_129.wav,0,False,550,52,Homme,1,0.071043,8.396736
20111971,24,0,2024-03-08T16:13:15.419Z,male_vraiment_flat_129.wav,0,False,550,52,Homme,2,0.142086,-17.691364
20111971,24,0,2024-03-08T16:13:15.419Z,male_vraiment_flat_129.wav,0,False,550,52,Homme,3,0.213129,73.711335
20111971,24,0,2024-03-08T16:13:15.419Z,male_vraiment_flat_129.wav,0,False,550,52,Homme,4,0.284172,-117.430618
20111971,24,0,2024-03-08T16:13:15.419Z,male_vraiment_flat_129.wav,0,False,550,52,Homme,5,0.355215,-12.936057
20111971,24,0,2024-03-08T16:13:15.419Z,male_vraiment_flat_129.wav,0,False,550,52,Homme,6,0.426259,-63.494285
20111971,24,0,2024-03-08T16:13:15.419Z,male_vraiment_flat_90.wav,1,True,550,52,Homme,0,0.000000,39.615876
20111971,24,0,2024-03-08T16:13:15.419Z,male_vraiment_flat_90.wav,1,True,550,52,Homme,1,0.071043,-130.464689
20111971,24,0,2024-03-08T16:13:15.419Z,male_vraiment_flat_90.wav,1,True,550,52,Homme,2,0.142086,46.838016
20111971,24,0,2024-03-08T16:13:15.419Z,male_vraiment_flat_90.wav,1,True,550,52,Homme,3,0.213129,104.861302
20111971,24,0,2024-03-08T16:13:15.419Z,male_vraiment_flat_90.wav,1,True,550,52,Homme,4,0.284172,-102.459680
20111971,24,0,2024-03-08T16:13:15.419Z,male_vraiment_flat_90.wav,1,True,550,52,Homme,5,0.355215,-91.275011
20111971,24,0,2024-03-08T16:13:15.419Z,male_vraiment_flat_90.wav,1,True,550,52,Homme,6,0.426259,45.823426
20111971,25,0,2024-03-08T16:13:15.419Z,male_vraiment_flat_116.wav,0,False,2428,52,Homme,0,0.000000,-80.686828
20111971,25,0,2024-03-08T16:13:15.419Z,male_vraiment_flat_116.wav,0,False,2428,52,Homme,1,0.071043,-31.189533
20111971,25,0,2024-03-08T16:13:15.419Z,male_vraiment_flat_116.wav,0,False,2428,52,Homme,2,0.142086,-144.914474
20111971,25,0,2024-03-08T16:13:15.419Z,male_vraiment_flat_116.wav,0,False,2428,52,Homme,3,0.213129,-49.653212
20111971,25,0,2024-03-08T16:13:15.419Z,male_vraiment_flat_116.wav,0,False,2428,52,Homme,4,0.284172,-94.646547
20111971,25,0,2024-03-08T16:13:15.419Z,male_vraiment_flat_116.wav,0,False,2428,52,Homme,5,0.355215,-38.055332
20111971,25,0,2024-03-08T16:13:15.419Z,male_vraiment_flat_116.wav,0,False,2428,52,Homme,6,0.426259,-90.510946
20111971,25,0,2024-03-08T16:13:15.419Z,male_vraiment_flat_190.wav,1,True,2428,52,Homme,0,0.000000,-135.472764
20111971,25,0,2024-03-08T16:13:15.419Z,male_vraiment_flat_190.wav,1,True,2428,52,Homme,1,0.071043,-16.311165
20111971,25,0,2024-03-08T16:13:15.419Z,male_vraiment_flat_190.wav,1,True,2428,52,Homme,2,0.142086,-108.166759
20111971,25,0,2024-03-08T16:13:15.419Z,male_vraiment_flat_190.wav,1,True,2428,52,Homme,3,0.213129,-73.778410
20111971,25,0,2024-03-08T16:13:15.419Z,male_vraiment_flat_190.wav,1,True,2428,52,Homme,4,0.284172,-109.839915
20111971,25,0,2024-03-08T16:13:15.419Z,male_vraiment_flat_190.wav,1,True,2428,52,Homme,5,0.355215,2.895785
20111971,25,0,2024-03-08T16:13:15.419Z,male_vraiment_flat_190.wav,1,True,2428,52,Homme,6,0.426259,14.515822
20111971,26,0,2024-03-08T16:13:15.419Z,male_vraiment_flat_107.wav,0,False,441,52,Homme,0,0.000000,147.824484
20111971,26,0,2024-03-08T16:13:15.419Z,male_vraiment_flat_107.wav,0,False,441,52,Homme,1,0.071043,-35.753560
20111971,26,0,2024-03-08T16:13:15.419Z,male_vraiment_flat_107.wav,0,False,441,52,Homme,2,0.142086,-17.671801
20111971,26,0,2024-03-08T16:13:15.419Z,male_vraiment_flat_107.wav,0,False,441,52,Homme,3,0.213129,145.037411
20111971,26,0,2024-03-08T16:13:15.419Z,male_vraiment_flat_107.wav,0,False,441,52,Homme,4,0.284172,17.430899
20111971,26,0,2024-03-08T16:13:15.419Z,male_vraiment_flat_107.wav,0,False,441,52,Homme,5,0.355215,-34.827913
20111971,26,0,2024-03-08T16:13:15.419Z,male_vraiment_flat_107.wav,0,False,441,52,Homme,6,0.426259,-148.430397
20111971,26,0,2024-03-08T16:13:15.419Z,male_vraiment_flat_157.wav,1,True,441,52,Homme,0,0.000000,20.473057
20111971,26,0,2024-03-08T16:13:15.419Z,male_vraiment_flat_157.wav,1,True,441,52,Homme,1,0.071043,-103.427341
20111971,26,0,2024-03-08T16:13:15.419Z,male_vraiment_flat_157.wav,1,True,441,52,Homme,2,0.142086,-58.670290
20111971,26,0,2024-03-08T16:13:15.419Z,male_vraiment_flat_157.wav,1,True,441,52,Homme,3,0.213129,-88.181786
20111971,26,0,2024-03-08T16:13:15.419Z,male_vraiment_flat_157.wav,1,True,441,52,Homme,4,0.284172,-145.892431
20111971,26,0,2024-03-08T16:13:15.419Z,male_vraiment_flat_157.wav,1,True,441,52,Homme,5,0.355215,-121.197130
20111971,26,0,2024-03-08T16:13:15.419Z,male_vraiment_flat_157.wav,1,True,441,52,Homme,6,0.426259,3.215116
20111971,27,0,2024-03-08T16:13:15.419Z,male_vraiment_flat_5.wav,0,False,632,52,Homme,0,0.000000,88.556797
20111971,27,0,2024-03-08T16:13:15.419Z,male_vraiment_flat_5.wav,0,False,632,52,Homme,1,0.071043,120.959384
20111971,27,0,2024-03-08T16:13:15.419Z,male_vraiment_flat_5.wav,0,False,632,52,Homme,2,0.142086,-116.065822
20111971,27,0,2024-03-08T16:13:15.419Z,male_vraiment_flat_5.wav,0,False,632,52,Homme,3,0.213129,130.464712
20111971,27,0,2024-03-08T16:13:15.419Z,male_vraiment_flat_5.wav,0,False,632,52,Homme,4,0.284172,88.167919
20111971,27,0,2024-03-08T16:13:15.419Z,male_vraiment_flat_5.wav,0,False,632,52,Homme,5,0.355215,75.417329
20111971,27,0,2024-03-08T16:13:15.419Z,male_vraiment_flat_5.wav,0,False,632,52,Homme,6,0.426259,65.499211
20111971,27,0,2024-03-08T16:13:15.419Z,male_vraiment_flat_83.wav,1,True,632,52,Homme,0,0.000000,-23.907946
20111971,27,0,2024-03-08T16:13:15.419Z,male_vraiment_flat_83.wav,1,True,632,52,Homme,1,0.071043,-0.791729
20111971,27,0,2024-03-08T16:13:15.419Z,male_vraiment_flat_83.wav,1,True,632,52,Homme,2,0.142086,23.610634
20111971,27,0,2024-03-08T16:13:15.419Z,male_vraiment_flat_83.wav,1,True,632,52,Homme,3,0.213129,-35.411923
20111971,27,0,2024-03-08T16:13:15.419Z,male_vraiment_flat_83.wav,1,True,632,52,Homme,4,0.284172,101.109402
20111971,27,0,2024-03-08T16:13:15.419Z,male_vraiment_flat_83.wav,1,True,632,52,Homme,5,0.355215,-51.929212
20111971,27,0,2024-03-08T16:13:15.419Z,male_vraiment_flat_83.wav,1,True,632,52,Homme,6,0.426259,-104.958378
20111971,28,0,2024-03-08T16:13:15.419Z,male_vraiment_flat_70.wav,0,False,2103,52,Homme,0,0.000000,-95.640606
20111971,28,0,2024-03-08T16:13:15.419Z,male_vraiment_flat_70.wav,0,False,2103,52,Homme,1,0.071043,17.584667
20111971,28,0,2024-03-08T16:13:15.419Z,male_vraiment_flat_70.wav,0,False,2103,52,Homme,2,0.142086,9.439432
20111971,28,0,2024-03-08T16:13:15.419Z,male_vraiment_flat_70.wav,0,False,2103,52,Homme,3,0.213129,26.204853
20111971,28,0,2024-03-08T16:13:15.419Z,male_vraiment_flat_70.wav,0,False,2103,52,Homme,4,0.284172,19.735476
20111971,28,0,2024-03-08T16:13:15.419Z,male_vraiment_flat_70.wav,0,False,2103,52,Homme,5,0.355215,-45.465161
20111971,28,0,2024-03-08T16:13:15.419Z,male_vraiment_flat_70.wav,0,False,2103,52,Homme,6,0.426259,24.901866
20111971,28,0,2024-03-08T16:13:15.419Z,male_vraiment_flat_24.wav,1,True,2103,52,Homme,0,0.000000,-144.276814
20111971,28,0,2024-03-08T16:13:15.419Z,male_vraiment_flat_24.wav,1,True,2103,52,Homme,1,0.071043,-59.436611
20111971,28,0,2024-03-08T16:13:15.419Z,male_vraiment_flat_24.wav,1,True,2103,52,Homme,2,0.142086,45.565590
20111971,28,0,2024-03-08T16:13:15.419Z,male_vraiment_flat_24.wav,1,True,2103,52,Homme,3,0.213129,19.626340
20111971,28,0,2024-03-08T16:13:15.419Z,male_vraiment_flat_24.wav,1,True,2103,52,Homme,4,0.284172,-127.586662
20111971,28,0,2024-03-08T16:13:15.419Z,male_vraiment_flat_24.wav,1,True,2103,52,Homme,5,0.355215,59.214853
20111971,28,0,2024-03-08T16:13:15.419Z,male_vraiment_flat_24.wav,1,True,2103,52,Homme,6,0.426259,-70.996219
20111971,29,0,2024-03-08T16:13:15.419Z,male_vraiment_flat_58.wav,0,False,1083,52,Homme,0,0.000000,-52.909251
20111971,29,0,2024-03-08T16:13:15.419Z,male_vraiment_flat_58.wav,0,False,1083,52,Homme,1,0.071043,-4.560860
20111971,29,0,2024-03-08T16:13:15.419Z,male_vraiment_flat_58.wav,0,False,1083,52,Homme,2,0.142086,-106.285240
20111971,29,0,2024-03-08T16:13:15.419Z,male_vraiment_flat_58.wav,0,False,1083,52,Homme,3,0.213129,-64.474310
20111971,29,0,2024-03-08T16:13:15.419Z,male_vraiment_flat_58.wav,0,False,1083,52,Homme,4,0.284172,-121.964639
20111971,29,0,2024-03-08T16:13:15.419Z,male_vraiment_flat_58.wav,0,False,1083,52,Homme,5,0.355215,35.204504
20111971,29,0,2024-03-08T16:13:15.419Z,male_vraiment_flat_58.wav,0,False,1083,52,Homme,6,0.426259,-7.933790
20111971,29,0,2024-03-08T16:13:15.419Z,male_vraiment_flat_103.wav,1,True,1083,52,Homme,0,0.000000,107.674069
20111971,29,0,2024-03-08T16:13:15.419Z,male_vraiment_flat_103.wav,1,True,1083,52,Homme,1,0.071043,149.413476
20111971,29,0,2024-03-08T16:13:15.419Z,male_vraiment_flat_103.wav,1,True,1083,52,Homme,2,0.142086,-1.049319
20111971,29,0,2024-03-08T16:13:15.419Z,male_vraiment_flat_103.wav,1,True,1083,52,Homme,3,0.213129,-7.353867
20111971,29,0,2024-03-08T16:13:15.419Z,male_vraiment_flat_103.wav,1,True,1083,52,Homme,4,0.284172,-2.169492
20111971,29,0,2024-03-08T16:13:15.419Z,male_vraiment_flat_103.wav,1,True,1083,52,Homme,5,0.355215,-94.854916
20111971,29,0,2024-03-08T16:13:15.419Z,male_vraiment_flat_103.wav,1,True,1083,52,Homme,6,0.426259,119.487430
20111971,30,0,2024-03-08T16:13:15.419Z,male_vraiment_flat_22.wav,0,True,3261,52,Homme,0,0.000000,131.811490
20111971,30,0,2024-03-08T16:13:15.419Z,male_vraiment_flat_22.wav,0,True,3261,52,Homme,1,0.071043,-17.710289
20111971,30,0,2024-03-08T16:13:15.419Z,male_vraiment_flat_22.wav,0,True,3261,52,Homme,2,0.142086,-106.310722
20111971,30,0,2024-03-08T16:13:15.419Z,male_vraiment_flat_22.wav,0,True,3261,52,Homme,3,0.213129,-118.997283
20111971,30,0,2024-03-08T16:13:15.419Z,male_vraiment_flat_22.wav,0,True,3261,52,Homme,4,0.284172,-44.158651
20111971,30,0,2024-03-08T16:13:15.419Z,male_vraiment_flat_22.wav,0,True,3261,52,Homme,5,0.355215,-65.057904
20111971,30,0,2024-03-08T16:13:15.419Z,male_vraiment_flat_22.wav,0,True,3261,52,Homme,6,0.426259,142.657358
20111971,30,0,2024-03-08T16:13:15.419Z,male_vraiment_flat_89.wav,1,False,3261,52,Homme,0,0.000000,109.966045
20111971,30,0,2024-03-08T16:13:15.419Z,male_vraiment_flat_89.wav,1,False,3261,52,Homme,1,0.071043,3.952874
20111971,30,0,2024-03-08T16:13:15.419Z,male_vraiment_flat_89.wav,1,False,3261,52,Homme,2,0.142086,14.687736
20111971,30,0,2024-03-08T16:13:15.419Z,male_vraiment_flat_89.wav,1,False,3261,52,Homme,3,0.213129,-59.041416
20111971,30,0,2024-03-08T16:13:15.419Z,male_vraiment_flat_89.wav,1,False,3261,52,Homme,4,0.284172,-42.151762
20111971,30,0,2024-03-08T16:13:15.419Z,male_vraiment_flat_89.wav,1,False,3261,52,Homme,5,0.355215,-148.779325
20111971,30,0,2024-03-08T16:13:15.419Z,male_vraiment_flat_89.wav,1,False,3261,52,Homme,6,0.426259,-61.315288
20111971,31,0,2024-03-08T16:13:15.419Z,male_vraiment_flat_3.wav,0,False,682,52,Homme,0,0.000000,139.821339
20111971,31,0,2024-03-08T16:13:15.419Z,male_vraiment_flat_3.wav,0,False,682,52,Homme,1,0.071043,-90.088416
20111971,31,0,2024-03-08T16:13:15.419Z,male_vraiment_flat_3.wav,0,False,682,52,Homme,2,0.142086,-144.376143
20111971,31,0,2024-03-08T16:13:15.419Z,male_vraiment_flat_3.wav,0,False,682,52,Homme,3,0.213129,-83.117215
20111971,31,0,2024-03-08T16:13:15.419Z,male_vraiment_flat_3.wav,0,False,682,52,Homme,4,0.284172,-15.266959
20111971,31,0,2024-03-08T16:13:15.419Z,male_vraiment_flat_3.wav,0,False,682,52,Homme,5,0.355215,-78.645111
20111971,31,0,2024-03-08T16:13:15.419Z,male_vraiment_flat_3.wav,0,False,682,52,Homme,6,0.426259,18.566710
20111971,31,0,2024-03-08T16:13:15.419Z,male_vraiment_flat_87.wav,1,True,682,52,Homme,0,0.000000,123.541183
20111971,31,0,2024-03-08T16:13:15.419Z,male_vraiment_flat_87.wav,1,True,682,52,Homme,1,0.071043,-79.641893
20111971,31,0,2024-03-08T16:13:15.419Z,male_vraiment_flat_87.wav,1,True,682,52,Homme,2,0.142086,-129.036775
20111971,31,0,2024-03-08T16:13:15.419Z,male_vraiment_flat_87.wav,1,True,682,52,Homme,3,0.213129,-12.372422
20111971,31,0,2024-03-08T16:13:15.419Z,male_vraiment_flat_87.wav,1,True,682,52,Homme,4,0.284172,47.099802
20111971,31,0,2024-03-08T16:13:15.419Z,male_vraiment_flat_87.wav,1,True,682,52,Homme,5,0.355215,133.796504
20111971,31,0,2024-03-08T16:13:15.419Z,male_vraiment_flat_87.wav,1,True,682,52,Homme,6,0.426259,125.051187
20111971,32,0,2024-03-08T16:13:15.419Z,male_vraiment_flat_160.wav,0,False,1597,52,Homme,0,0.000000,21.342691
20111971,32,0,2024-03-08T16:13:15.419Z,male_vraiment_flat_160.wav,0,False,1597,52,Homme,1,0.071043,-76.780347
20111971,32,0,2024-03-08T16:13:15.419Z,male_vraiment_flat_160.wav,0,False,1597,52,Homme,2,0.142086,-127.843887
20111971,32,0,2024-03-08T16:13:15.419Z,male_vraiment_flat_160.wav,0,False,1597,52,Homme,3,0.213129,-126.126744
20111971,32,0,2024-03-08T16:13:15.419Z,male_vraiment_flat_160.wav,0,False,1597,52,Homme,4,0.284172,-33.722090
20111971,32,0,2024-03-08T16:13:15.419Z,male_vraiment_flat_160.wav,0,False,1597,52,Homme,5,0.355215,18.600024
20111971,32,0,2024-03-08T16:13:15.419Z,male_vraiment_flat_160.wav,0,False,1597,52,Homme,6,0.426259,-57.157597
20111971,32,0,2024-03-08T16:13:15.419Z,male_vraiment_flat_168.wav,1,True,1597,52,Homme,0,0.000000,20.996757
20111971,32,0,2024-03-08T16:13:15.419Z,male_vraiment_flat_168.wav,1,True,1597,52,Homme,1,0.071043,53.221671
20111971,32,0,2024-03-08T16:13:15.419Z,male_vraiment_flat_168.wav,1,True,1597,52,Homme,2,0.142086,15.731623
20111971,32,0,2024-03-08T16:13:15.419Z,male_vraiment_flat_168.wav,1,True,1597,52,Homme,3,0.213129,99.382807
20111971,32,0,2024-03-08T16:13:15.419Z,male_vraiment_flat_168.wav,1,True,1597,52,Homme,4,0.284172,-57.914754
20111971,32,0,2024-03-08T16:13:15.419Z,male_vraiment_flat_168.wav,1,True,1597,52,Homme,5,0.355215,26.961730
20111971,32,0,2024-03-08T16:13:15.419Z,male_vraiment_flat_168.wav,1,True,1597,52,Homme,6,0.426259,-63.149674
20111971,33,0,2024-03-08T16:13:15.419Z,male_vraiment_flat_95.wav,0,True,909,52,Homme,0,0.000000,144.813706
20111971,33,0,2024-03-08T16:13:15.419Z,male_vraiment_flat_95.wav,0,True,909,52,Homme,1,0.071043,36.420023
20111971,33,0,2024-03-08T16:13:15.419Z,male_vraiment_flat_95.wav,0,True,909,52,Homme,2,0.142086,-15.581887
20111971,33,0,2024-03-08T16:13:15.419Z,male_vraiment_flat_95.wav,0,True,909,52,Homme,3,0.213129,-108.080315
20111971,33,0,2024-03-08T16:13:15.419Z,male_vraiment_flat_95.wav,0,True,909,52,Homme,4,0.284172,44.827040
20111971,33,0,2024-03-08T16:13:15.419Z,male_vraiment_flat_95.wav,0,True,909,52,Homme,5,0.355215,-140.857646
20111971,33,0,2024-03-08T16:13:15.419Z,male_vraiment_flat_95.wav,0,True,909,52,Homme,6,0.426259,-19.601185
20111971,33,0,2024-03-08T16:13:15.419Z,male_vraiment_flat_68.wav,1,False,909,52,Homme,0,0.000000,-95.161618
20111971,33,0,2024-03-08T16:13:15.419Z,male_vraiment_flat_68.wav,1,False,909,52,Homme,1,0.071043,-119.152564
20111971,33,0,2024-03-08T16:13:15.419Z,male_vraiment_flat_68.wav,1,False,909,52,Homme,2,0.142086,18.051976
20111971,33,0,2024-03-08T16:13:15.419Z,male_vraiment_flat_68.wav,1,False,909,52,Homme,3,0.213129,-26.870716
20111971,33,0,2024-03-08T16:13:15.419Z,male_vraiment_flat_68.wav,1,False,909,52,Homme,4,0.284172,87.472746
20111971,33,0,2024-03-08T16:13:15.419Z,male_vraiment_flat_68.wav,1,False,909,52,Homme,5,0.355215,-56.607347
20111971,33,0,2024-03-08T16:13:15.419Z,male_vraiment_flat_68.wav,1,False,909,52,Homme,6,0.426259,148.066508
20111971,34,0,2024-03-08T16:13:15.419Z,male_vraiment_flat_133.wav,0,False,521,52,Homme,0,0.000000,-33.116176
20111971,34,0,2024-03-08T16:13:15.419Z,male_vraiment_flat_133.wav,0,False,521,52,Homme,1,0.071043,-79.722902
20111971,34,0,2024-03-08T16:13:15.419Z,male_vraiment_flat_133.wav,0,False,521,52,Homme,2,0.142086,-0.174059
20111971,34,0,2024-03-08T16:13:15.419Z,male_vraiment_flat_133.wav,0,False,521,52,Homme,3,0.213129,82.274364
20111971,34,0,2024-03-08T16:13:15.419Z,male_vraiment_flat_133.wav,0,False,521,52,Homme,4,0.284172,-109.731995
20111971,34,0,2024-03-08T16:13:15.419Z,male_vraiment_flat_133.wav,0,False,521,52,Homme,5,0.355215,-72.489270
20111971,34,0,2024-03-08T16:13:15.419Z,male_vraiment_flat_133.wav,0,False,521,52,Homme,6,0.426259,11.511705
20111971,34,0,2024-03-08T16:13:15.419Z,male_vraiment_flat_13.wav,1,True,521,52,Homme,0,0.000000,-66.984077
20111971,34,0,2024-03-08T16:13:15.419Z,male_vraiment_flat_13.wav,1,True,521,52,Homme,1,0.071043,5.429279
20111971,34,0,2024-03-08T16:13:15.419Z,male_vraiment_flat_13.wav,1,True,521,52,Homme,2,0.142086,12.572717
20111971,34,0,2024-03-08T16:13:15.419Z,male_vraiment_flat_13.wav,1,True,521,52,Homme,3,0.213129,-71.562953
20111971,34,0,2024-03-08T16:13:15.419Z,male_vraiment_flat_13.wav,1,True,521,52,Homme,4,0.284172,-107.999901
20111971,34,0,2024-03-08T16:13:15.419Z,male_vraiment_flat_13.wav,1,True,521,52,Homme,5,0.355215,86.606735
20111971,34,0,2024-03-08T16:13:15.419Z,male_vraiment_flat_13.wav,1,True,521,52,Homme,6,0.426259,-82.122177
20111971,35,0,2024-03-08T16:13:15.419Z,male_vraiment_flat_184.wav,0,False,1092,52,Homme,0,0.000000,86.245131
20111971,35,0,2024-03-08T16:13:15.419Z,male_vraiment_flat_184.wav,0,False,1092,52,Homme,1,0.071043,106.604050
20111971,35,0,2024-03-08T16:13:15.419Z,male_vraiment_flat_184.wav,0,False,1092,52,Homme,2,0.142086,-48.425154
20111971,35,0,2024-03-08T16:13:15.419Z,male_vraiment_flat_184.wav,0,False,1092,52,Homme,3,0.213129,48.927001
20111971,35,0,2024-03-08T16:13:15.419Z,male_vraiment_flat_184.wav,0,False,1092,52,Homme,4,0.284172,-82.972934
20111971,35,0,2024-03-08T16:13:15.419Z,male_vraiment_flat_184.wav,0,False,1092,52,Homme,5,0.355215,73.552976
20111971,35,0,2024-03-08T16:13:15.419Z,male_vraiment_flat_184.wav,0,False,1092,52,Homme,6,0.426259,-131.359115
20111971,35,0,2024-03-08T16:13:15.419Z,male_vraiment_flat_50.wav,1,True,1092,52,Homme,0,0.000000,96.336182
20111971,35,0,2024-03-08T16:13:15.419Z,male_vraiment_flat_50.wav,1,True,1092,52,Homme,1,0.071043,-104.561128
20111971,35,0,2024-03-08T16:13:15.419Z,male_vraiment_flat_50.wav,1,True,1092,52,Homme,2,0.142086,-130.066913
20111971,35,0,2024-03-08T16:13:15.419Z,male_vraiment_flat_50.wav,1,True,1092,52,Homme,3,0.213129,-24.308766
20111971,35,0,2024-03-08T16:13:15.419Z,male_vraiment_flat_50.wav,1,True,1092,52,Homme,4,0.284172,40.127472
20111971,35,0,2024-03-08T16:13:15.419Z,male_vraiment_flat_50.wav,1,True,1092,52,Homme,5,0.355215,49.388454
20111971,35,0,2024-03-08T16:13:15.419Z,male_vraiment_flat_50.wav,1,True,1092,52,Homme,6,0.426259,116.704022
20111971,36,0,2024-03-08T16:13:15.419Z,male_vraiment_flat_189.wav,0,False,566,52,Homme,0,0.000000,53.448621
20111971,36,0,2024-03-08T16:13:15.419Z,male_vraiment_flat_189.wav,0,False,566,52,Homme,1,0.071043,82.292801
20111971,36,0,2024-03-08T16:13:15.419Z,male_vraiment_flat_189.wav,0,False,566,52,Homme,2,0.142086,-89.509706
20111971,36,0,2024-03-08T16:13:15.419Z,male_vraiment_flat_189.wav,0,False,566,52,Homme,3,0.213129,61.203077
20111971,36,0,2024-03-08T16:13:15.419Z,male_vraiment_flat_189.wav,0,False,566,52,Homme,4,0.284172,-64.080431
20111971,36,0,2024-03-08T16:13:15.419Z,male_vraiment_flat_189.wav,0,False,566,52,Homme,5,0.355215,71.408242
20111971,36,0,2024-03-08T16:13:15.419Z,male_vraiment_flat_189.wav,0,False,566,52,Homme,6,0.426259,-96.299976
20111971,36,0,2024-03-08T16:13:15.419Z,male_vraiment_flat_162.wav,1,True,566,52,Homme,0,0.000000,-28.080103
20111971,36,0,2024-03-08T16:13:15.419Z,male_vraiment_flat_162.wav,1,True,566,52,Homme,1,0.071043,-58.839442
20111971,36,0,2024-03-08T16:13:15.419Z,male_vraiment_flat_162.wav,1,True,566,52,Homme,2,0.142086,8.883261
20111971,36,0,2024-03-08T16:13:15.419Z,male_vraiment_flat_162.wav,1,True,566,52,Homme,3,0.213129,109.746189
20111971,36,0,2024-03-08T16:13:15.419Z,male_vraiment_flat_162.wav,1,True,566,52,Homme,4,0.284172,134.765505
20111971,36,0,2024-03-08T16:13:15.419Z,male_vraiment_flat_162.wav,1,True,566,52,Homme,5,0.355215,-8.935646
20111971,36,0,2024-03-08T16:13:15.419Z,male_vraiment_flat_162.wav,1,True,566,52,Homme,6,0.426259,114.162759
20111971,37,0,2024-03-08T16:13:15.419Z,male_vraiment_flat_139.wav,0,False,521,52,Homme,0,0.000000,-131.535185
20111971,37,0,2024-03-08T16:13:15.419Z,male_vraiment_flat_139.wav,0,False,521,52,Homme,1,0.071043,-10.702864
20111971,37,0,2024-03-08T16:13:15.419Z,male_vraiment_flat_139.wav,0,False,521,52,Homme,2,0.142086,-8.370040
20111971,37,0,2024-03-08T16:13:15.419Z,male_vraiment_flat_139.wav,0,False,521,52,Homme,3,0.213129,83.706839
20111971,37,0,2024-03-08T16:13:15.419Z,male_vraiment_flat_139.wav,0,False,521,52,Homme,4,0.284172,-28.836111
20111971,37,0,2024-03-08T16:13:15.419Z,male_vraiment_flat_139.wav,0,False,521,52,Homme,5,0.355215,8.499607
20111971,37,0,2024-03-08T16:13:15.419Z,male_vraiment_flat_139.wav,0,False,521,52,Homme,6,0.426259,-85.859123
20111971,37,0,2024-03-08T16:13:15.419Z,male_vraiment_flat_42.wav,1,True,521,52,Homme,0,0.000000,-6.709342
20111971,37,0,2024-03-08T16:13:15.419Z,male_vraiment_flat_42.wav,1,True,521,52,Homme,1,0.071043,35.704202
20111971,37,0,2024-03-08T16:13:15.419Z,male_vraiment_flat_42.wav,1,True,521,52,Homme,2,0.142086,-71.421689
20111971,37,0,2024-03-08T16:13:15.419Z,male_vraiment_flat_42.wav,1,True,521,52,Homme,3,0.213129,-126.906461
20111971,37,0,2024-03-08T16:13:15.419Z,male_vraiment_flat_42.wav,1,True,521,52,Homme,4,0.284172,10.231121
20111971,37,0,2024-03-08T16:13:15.419Z,male_vraiment_flat_42.wav,1,True,521,52,Homme,5,0.355215,128.933526
20111971,37,0,2024-03-08T16:13:15.419Z,male_vraiment_flat_42.wav,1,True,521,52,Homme,6,0.426259,-76.727395
20111971,38,0,2024-03-08T16:13:15.419Z,male_vraiment_flat_21.wav,0,False,541,52,Homme,0,0.000000,84.422922
20111971,38,0,2024-03-08T16:13:15.419Z,male_vraiment_flat_21.wav,0,False,541,52,Homme,1,0.071043,34.734306
20111971,38,0,2024-03-08T16:13:15.419Z,male_vraiment_flat_21.wav,0,False,541,52,Homme,2,0.142086,84.348012
20111971,38,0,2024-03-08T16:13:15.419Z,male_vraiment_flat_21.wav,0,False,541,52,Homme,3,0.213129,-112.005491
20111971,38,0,2024-03-08T16:13:15.419Z,male_vraiment_flat_21.wav,0,False,541,52,Homme,4,0.284172,147.407394
20111971,38,0,2024-03-08T16:13:15.419Z,male_vraiment_flat_21.wav,0,False,541,52,Homme,5,0.355215,-6.622355
20111971,38,0,2024-03-08T16:13:15.419Z,male_vraiment_flat_21.wav,0,False,541,52,Homme,6,0.426259,125.674103
20111971,38,0,2024-03-08T16:13:15.419Z,male_vraiment_flat_84.wav,1,True,541,52,Homme,0,0.000000,79.222174
20111971,38,0,2024-03-08T16:13:15.419Z,male_vraiment_flat_84.wav,1,True,541,52,Homme,1,0.071043,61.816109
20111971,38,0,2024-03-08T16:13:15.419Z,male_vraiment_flat_84.wav,1,True,541,52,Homme,2,0.142086,-111.712238
20111971,38,0,2024-03-08T16:13:15.419Z,male_vraiment_flat_84.wav,1,True,541,52,Homme,3,0.213129,96.584947
20111971,38,0,2024-03-08T16:13:15.419Z,male_vraiment_flat_84.wav,1,True,541,52,Homme,4,0.284172,-11.292098
20111971,38,0,2024-03-08T16:13:15.419Z,male_vraiment_flat_84.wav,1,True,541,52,Homme,5,0.355215,57.720124
20111971,38,0,2024-03-08T16:13:15.419Z,male_vraiment_flat_84.wav,1,True,541,52,Homme,6,0.426259,-122.021307
20111971,39,0,2024-03-08T16:13:15.419Z,male_vraiment_flat_124.wav,0,True,685,52,Homme,0,0.000000,-7.963711
20111971,39,0,2024-03-08T16:13:15.419Z,male_vraiment_flat_124.wav,0,True,685,52,Homme,1,0.071043,-56.081883
20111971,39,0,2024-03-08T16:13:15.419Z,male_vraiment_flat_124.wav,0,True,685,52,Homme,2,0.142086,-78.115299
20111971,39,0,2024-03-08T16:13:15.419Z,male_vraiment_flat_124.wav,0,True,685,52,Homme,3,0.213129,-24.811935
20111971,39,0,2024-03-08T16:13:15.419Z,male_vraiment_flat_124.wav,0,True,685,52,Homme,4,0.284172,-9.003272
20111971,39,0,2024-03-08T16:13:15.419Z,male_vraiment_flat_124.wav,0,True,685,52,Homme,5,0.355215,13.712214
20111971,39,0,2024-03-08T16:13:15.419Z,male_vraiment_flat_124.wav,0,True,685,52,Homme,6,0.426259,140.048390
20111971,39,0,2024-03-08T16:13:15.419Z,male_vraiment_flat_35.wav,1,False,685,52,Homme,0,0.000000,-80.907759
20111971,39,0,2024-03-08T16:13:15.419Z,male_vraiment_flat_35.wav,1,False,685,52,Homme,1,0.071043,-44.446048
20111971,39,0,2024-03-08T16:13:15.419Z,male_vraiment_flat_35.wav,1,False,685,52,Homme,2,0.142086,-51.579277
20111971,39,0,2024-03-08T16:13:15.419Z,male_vraiment_flat_35.wav,1,False,685,52,Homme,3,0.213129,-66.764099
20111971,39,0,2024-03-08T16:13:15.419Z,male_vraiment_flat_35.wav,1,False,685,52,Homme,4,0.284172,-35.478686
20111971,39,0,2024-03-08T16:13:15.419Z,male_vraiment_flat_35.wav,1,False,685,52,Homme,5,0.355215,-86.823570
20111971,39,0,2024-03-08T16:13:15.419Z,male_vraiment_flat_35.wav,1,False,685,52,Homme,6,0.426259,26.550026
20111971,40,0,2024-03-08T16:13:15.419Z,male_vraiment_flat_19.wav,0,False,433,52,Homme,0,0.000000,-23.596543
20111971,40,0,2024-03-08T16:13:15.419Z,male_vraiment_flat_19.wav,0,False,433,52,Homme,1,0.071043,-71.824414
20111971,40,0,2024-03-08T16:13:15.419Z,male_vraiment_flat_19.wav,0,False,433,52,Homme,2,0.142086,88.506579
20111971,40,0,2024-03-08T16:13:15.419Z,male_vraiment_flat_19.wav,0,False,433,52,Homme,3,0.213129,-79.935804
20111971,40,0,2024-03-08T16:13:15.419Z,male_vraiment_flat_19.wav,0,False,433,52,Homme,4,0.284172,97.974212
20111971,40,0,2024-03-08T16:13:15.419Z,male_vraiment_flat_19.wav,0,False,433,52,Homme,5,0.355215,-89.439384
20111971,40,0,2024-03-08T16:13:15.419Z,male_vraiment_flat_19.wav,0,False,433,52,Homme,6,0.426259,-131.198163
20111971,40,0,2024-03-08T16:13:15.419Z,male_vraiment_flat_154.wav,1,True,433,52,Homme,0,0.000000,-56.341735
20111971,40,0,2024-03-08T16:13:15.419Z,male_vraiment_flat_154.wav,1,True,433,52,Homme,1,0.071043,15.133004
20111971,40,0,2024-03-08T16:13:15.419Z,male_vraiment_flat_154.wav,1,True,433,52,Homme,2,0.142086,67.588138
20111971,40,0,2024-03-08T16:13:15.419Z,male_vraiment_flat_154.wav,1,True,433,52,Homme,3,0.213129,4.827765
20111971,40,0,2024-03-08T16:13:15.419Z,male_vraiment_flat_154.wav,1,True,433,52,Homme,4,0.284172,-119.124529
20111971,40,0,2024-03-08T16:13:15.419Z,male_vraiment_flat_154.wav,1,True,433,52,Homme,5,0.355215,137.124750
20111971,40,0,2024-03-08T16:13:15.419Z,male_vraiment_flat_154.wav,1,True,433,52,Homme,6,0.426259,-61.627299
20111971,41,0,2024-03-08T16:13:15.419Z,male_vraiment_flat_112.wav,0,True,1049,52,Homme,0,0.000000,40.318333
20111971,41,0,2024-03-08T16:13:15.419Z,male_vraiment_flat_112.wav,0,True,1049,52,Homme,1,0.071043,28.779991
20111971,41,0,2024-03-08T16:13:15.419Z,male_vraiment_flat_112.wav,0,True,1049,52,Homme,2,0.142086,-86.990654
20111971,41,0,2024-03-08T16:13:15.419Z,male_vraiment_flat_112.wav,0,True,1049,52,Homme,3,0.213129,-136.064498
20111971,41,0,2024-03-08T16:13:15.419Z,male_vraiment_flat_112.wav,0,True,1049,52,Homme,4,0.284172,89.286191
20111971,41,0,2024-03-08T16:13:15.419Z,male_vraiment_flat_112.wav,0,True,1049,52,Homme,5,0.355215,99.616935
20111971,41,0,2024-03-08T16:13:15.419Z,male_vraiment_flat_112.wav,0,True,1049,52,Homme,6,0.426259,-61.253639
20111971,41,0,2024-03-08T16:13:15.419Z,male_vraiment_flat_11.wav,1,False,1049,52,Homme,0,0.000000,106.632802
20111971,41,0,2024-03-08T16:13:15.419Z,male_vraiment_flat_11.wav,1,False,1049,52,Homme,1,0.071043,30.235531
20111971,41,0,2024-03-08T16:13:15.419Z,male_vraiment_flat_11.wav,1,False,1049,52,Homme,2,0.142086,-31.934811
20111971,41,0,2024-03-08T16:13:15.419Z,male_vraiment_flat_11.wav,1,False,1049,52,Homme,3,0.213129,-70.817469
20111971,41,0,2024-03-08T16:13:15.419Z,male_vraiment_flat_11.wav,1,False,1049,52,Homme,4,0.284172,-134.947845
20111971,41,0,2024-03-08T16:13:15.419Z,male_vraiment_flat_11.wav,1,False,1049,52,Homme,5,0.355215,-61.866249
20111971,41,0,2024-03-08T16:13:15.419Z,male_vraiment_flat_11.wav,1,False,1049,52,Homme,6,0.426259,61.370028
20111971,42,0,2024-03-08T16:13:15.419Z,male_vraiment_flat_57.wav,0,True,646,52,Homme,0,0.000000,-38.971396
20111971,42,0,2024-03-08T16:13:15.419Z,male_vraiment_flat_57.wav,0,True,646,52,Homme,1,0.071043,127.210639
20111971,42,0,2024-03-08T16:13:15.419Z,male_vraiment_flat_57.wav,0,True,646,52,Homme,2,0.142086,-100.465383
20111971,42,0,2024-03-08T16:13:15.419Z,male_vraiment_flat_57.wav,0,True,646,52,Homme,3,0.213129,-139.526819
20111971,42,0,2024-03-08T16:13:15.419Z,male_vraiment_flat_57.wav,0,True,646,52,Homme,4,0.284172,-149.467980
20111971,42,0,2024-03-08T16:13:15.419Z,male_vraiment_flat_57.wav,0,True,646,52,Homme,5,0.355215,-50.432071
20111971,42,0,2024-03-08T16:13:15.419Z,male_vraiment_flat_57.wav,0,True,646,52,Homme,6,0.426259,15.305878
20111971,42,0,2024-03-08T16:13:15.419Z,male_vraiment_flat_167.wav,1,False,646,52,Homme,0,0.000000,-97.244470
20111971,42,0,2024-03-08T16:13:15.419Z,male_vraiment_flat_167.wav,1,False,646,52,Homme,1,0.071043,55.519403
20111971,42,0,2024-03-08T16:13:15.419Z,male_vraiment_flat_167.wav,1,False,646,52,Homme,2,0.142086,-125.285214
20111971,42,0,2024-03-08T16:13:15.419Z,male_vraiment_flat_167.wav,1,False,646,52,Homme,3,0.213129,-87.843825
20111971,42,0,2024-03-08T16:13:15.419Z,male_vraiment_flat_167.wav,1,False,646,52,Homme,4,0.284172,-127.750284
20111971,42,0,2024-03-08T16:13:15.419Z,male_vraiment_flat_167.wav,1,False,646,52,Homme,5,0.355215,-93.631866
20111971,42,0,2024-03-08T16:13:15.419Z,male_vraiment_flat_167.wav,1,False,646,52,Homme,6,0.426259,6.691804
20111971,43,0,2024-03-08T16:13:15.419Z,male_vraiment_flat_174.wav,0,True,525,52,Homme,0,0.000000,12.449350
20111971,43,0,2024-03-08T16:13:15.419Z,male_vraiment_flat_174.wav,0,True,525,52,Homme,1,0.071043,17.986555
20111971,43,0,2024-03-08T16:13:15.419Z,male_vraiment_flat_174.wav,0,True,525,52,Homme,2,0.142086,-72.720888
20111971,43,0,2024-03-08T16:13:15.419Z,male_vraiment_flat_174.wav,0,True,525,52,Homme,3,0.213129,41.369679
20111971,43,0,2024-03-08T16:13:15.419Z,male_vraiment_flat_174.wav,0,True,525,52,Homme,4,0.284172,-146.787018
20111971,43,0,2024-03-08T16:13:15.419Z,male_vraiment_flat_174.wav,0,True,525,52,Homme,5,0.355215,3.271800
20111971,43,0,2024-03-08T16:13:15.419Z,male_vraiment_flat_174.wav,0,True,525,52,Homme,6,0.426259,26.686198
20111971,43,0,2024-03-08T16:13:15.419Z,male_vraiment_flat_177.wav,1,False,525,52,Homme,0,0.000000,16.306046
20111971,43,0,2024-03-08T16:13:15.419Z,male_vraiment_flat_177.wav,1,False,525,52,Homme,1,0.071043,49.193464
20111971,43,0,2024-03-08T16:13:15.419Z,male_vraiment_flat_177.wav,1,False,525,52,Homme,2,0.142086,-57.450827
20111971,43,0,2024-03-08T16:13:15.419Z,male_vraiment_flat_177.wav,1,False,525,52,Homme,3,0.213129,-71.200742
20111971,43,0,2024-03-08T16:13:15.419Z,male_vraiment_flat_177.wav,1,False,525,52,Homme,4,0.284172,75.759547
20111971,43,0,2024-03-08T16:13:15.419Z,male_vraiment_flat_177.wav,1,False,525,52,Homme,5,0.355215,-147.097868
20111971,43,0,2024-03-08T16:13:15.419Z,male_vraiment_flat_177.wav,1,False,525,52,Homme,6,0.426259,-23.614561
20111971,44,0,2024-03-08T16:13:15.419Z,male_vraiment_flat_32.wav,0,True,455,52,Homme,0,0.000000,-83.957947
20111971,44,0,2024-03-08T16:13:15.419Z,male_vraiment_flat_32.wav,0,True,455,52,Homme,1,0.071043,68.475222
20111971,44,0,2024-03-08T16:13:15.419Z,male_vraiment_flat_32.wav,0,True,455,52,Homme,2,0.142086,-59.489465
20111971,44,0,2024-03-08T16:13:15.419Z,male_vraiment_flat_32.wav,0,True,455,52,Homme,3,0.213129,64.566697
20111971,44,0,2024-03-08T16:13:15.419Z,male_vraiment_flat_32.wav,0,True,455,52,Homme,4,0.284172,-27.267557
20111971,44,0,2024-03-08T16:13:15.419Z,male_vraiment_flat_32.wav,0,True,455,52,Homme,5,0.355215,94.356275
20111971,44,0,2024-03-08T16:13:15.419Z,male_vraiment_flat_32.wav,0,True,455,52,Homme,6,0.426259,27.666308
20111971,44,0,2024-03-08T16:13:15.419Z,male_vraiment_flat_120.wav,1,False,455,52,Homme,0,0.000000,20.081065
20111971,44,0,2024-03-08T16:13:15.419Z,male_vraiment_flat_120.wav,1,False,455,52,Homme,1,0.071043,100.844988
20111971,44,0,2024-03-08T16:13:15.419Z,male_vraiment_flat_120.wav,1,False,455,52,Homme,2,0.142086,-34.199178
20111971,44,0,2024-03-08T16:13:15.419Z,male_vraiment_flat_120.wav,1,False,455,52,Homme,3,0.213129,-3.979999
20111971,44,0,2024-03-08T16:13:15.419Z,male_vraiment_flat_120.wav,1,False,455,52,Homme,4,0.284172,-132.448085
20111971,44,0,2024-03-08T16:13:15.419Z,male_vraiment_flat_120.wav,1,False,455,52,Homme,5,0.355215,-95.704719
20111971,44,0,2024-03-08T16:13:15.419Z,male_vraiment_flat_120.wav,1,False,455,52,Homme,6,0.426259,-2.125632
20111971,45,0,2024-03-08T16:13:15.419Z,male_vraiment_flat_18.wav,0,True,1070,52,Homme,0,0.000000,-126.424441
20111971,45,0,2024-03-08T16:13:15.419Z,male_vraiment_flat_18.wav,0,True,1070,52,Homme,1,0.071043,-57.286238
20111971,45,0,2024-03-08T16:13:15.419Z,male_vraiment_flat_18.wav,0,True,1070,52,Homme,2,0.142086,14.494248
20111971,45,0,2024-03-08T16:13:15.419Z,male_vraiment_flat_18.wav,0,True,1070,52,Homme,3,0.213129,11.325267
20111971,45,0,2024-03-08T16:13:15.419Z,male_vraiment_flat_18.wav,0,True,1070,52,Homme,4,0.284172,-20.022709
20111971,45,0,2024-03-08T16:13:15.419Z,male_vraiment_flat_18.wav,0,True,1070,52,Homme,5,0.355215,-67.838631
20111971,45,0,2024-03-08T16:13:15.419Z,male_vraiment_flat_18.wav,0,True,1070,52,Homme,6,0.426259,-75.619086
20111971,45,0,2024-03-08T16:13:15.419Z,male_vraiment_flat_66.wav,1,False,1070,52,Homme,0,0.000000,96.429433
20111971,45,0,2024-03-08T16:13:15.419Z,male_vraiment_flat_66.wav,1,False,1070,52,Homme,1,0.071043,13.373052
20111971,45,0,2024-03-08T16:13:15.419Z,male_vraiment_flat_66.wav,1,False,1070,52,Homme,2,0.142086,112.602816
20111971,45,0,2024-03-08T16:13:15.419Z,male_vraiment_flat_66.wav,1,False,1070,52,Homme,3,0.213129,110.292573
20111971,45,0,2024-03-08T16:13:15.419Z,male_vraiment_flat_66.wav,1,False,1070,52,Homme,4,0.284172,-89.729138
20111971,45,0,2024-03-08T16:13:15.419Z,male_vraiment_flat_66.wav,1,False,1070,52,Homme,5,0.355215,-67.456514
20111971,45,0,2024-03-08T16:13:15.419Z,male_vraiment_flat_66.wav,1,False,1070,52,Homme,6,0.426259,79.997172
20111971,46,0,2024-03-08T16:13:15.419Z,male_vraiment_flat_72.wav,0,True,595,52,Homme,0,0.000000,-108.464526
20111971,46,0,2024-03-08T16:13:15.419Z,male_vraiment_flat_72.wav,0,True,595,52,Homme,1,0.071043,78.835335
20111971,46,0,2024-03-08T16:13:15.419Z,male_vraiment_flat_72.wav,0,True,595,52,Homme,2,0.142086,134.553834
20111971,46,0,2024-03-08T16:13:15.419Z,male_vraiment_flat_72.wav,0,True,595,52,Homme,3,0.213129,5.396534
20111971,46,0,2024-03-08T16:13:15.419Z,male_vraiment_flat_72.wav,0,True,595,52,Homme,4,0.284172,7.798595
20111971,46,0,2024-03-08T16:13:15.419Z,male_vraiment_flat_72.wav,0,True,595,52,Homme,5,0.355215,65.510626
20111971,46,0,2024-03-08T16:13:15.419Z,male_vraiment_flat_72.wav,0,True,595,52,Homme,6,0.426259,-103.798030
20111971,46,0,2024-03-08T16:13:15.419Z,male_vraiment_flat_182.wav,1,False,595,52,Homme,0,0.000000,20.855134
20111971,46,0,2024-03-08T16:13:15.419Z,male_vraiment_flat_182.wav,1,False,595,52,Homme,1,0.071043,131.000404
20111971,46,0,2024-03-08T16:13:15.419Z,male_vraiment_flat_182.wav,1,False,595,52,Homme,2,0.142086,-24.691908
20111971,46,0,2024-03-08T16:13:15.419Z,male_vraiment_flat_182.wav,1,False,595,52,Homme,3,0.213129,128.422786
20111971,46,0,2024-03-08T16:13:15.419Z,male_vraiment_flat_182.wav,1,False,595,52,Homme,4,0.284172,-128.848387
20111971,46,0,2024-03-08T16:13:15.419Z,male_vraiment_flat_182.wav,1,False,595,52,Homme,5,0.355215,118.792618
20111971,46,0,2024-03-08T16:13:15.419Z,male_vraiment_flat_182.wav,1,False,595,52,Homme,6,0.426259,-92.475253
20111971,47,0,2024-03-08T16:13:15.419Z,male_vraiment_flat_12.wav,0,True,664,52,Homme,0,0.000000,-11.936919
20111971,47,0,2024-03-08T16:13:15.419Z,male_vraiment_flat_12.wav,0,True,664,52,Homme,1,0.071043,-51.249998
20111971,47,0,2024-03-08T16:13:15.419Z,male_vraiment_flat_12.wav,0,True,664,52,Homme,2,0.142086,42.322915
20111971,47,0,2024-03-08T16:13:15.419Z,male_vraiment_flat_12.wav,0,True,664,52,Homme,3,0.213129,-19.839410
20111971,47,0,2024-03-08T16:13:15.419Z,male_vraiment_flat_12.wav,0,True,664,52,Homme,4,0.284172,46.127041
20111971,47,0,2024-03-08T16:13:15.419Z,male_vraiment_flat_12.wav,0,True,664,52,Homme,5,0.355215,34.596861
20111971,47,0,2024-03-08T16:13:15.419Z,male_vraiment_flat_12.wav,0,True,664,52,Homme,6,0.426259,143.594573
20111971,47,0,2024-03-08T16:13:15.419Z,male_vraiment_flat_49.wav,1,False,664,52,Homme,0,0.000000,-83.600042
20111971,47,0,2024-03-08T16:13:15.419Z,male_vraiment_flat_49.wav,1,False,664,52,Homme,1,0.071043,-14.728623
20111971,47,0,2024-03-08T16:13:15.419Z,male_vraiment_flat_49.wav,1,False,664,52,Homme,2,0.142086,25.142138
20111971,47,0,2024-03-08T16:13:15.419Z,male_vraiment_flat_49.wav,1,False,664,52,Homme,3,0.213129,135.875151
20111971,47,0,2024-03-08T16:13:15.419Z,male_vraiment_flat_49.wav,1,False,664,52,Homme,4,0.284172,60.117986
20111971,47,0,2024-03-08T16:13:15.419Z,male_vraiment_flat_49.wav,1,False,664,52,Homme,5,0.355215,-135.086661
20111971,47,0,2024-03-08T16:13:15.419Z,male_vraiment_flat_49.wav,1,False,664,52,Homme,6,0.426259,-32.809615
20111971,48,0,2024-03-08T16:13:15.419Z,male_vraiment_flat_17.wav,0,True,1189,52,Homme,0,0.000000,91.198655
20111971,48,0,2024-03-08T16:13:15.419Z,male_vraiment_flat_17.wav,0,True,1189,52,Homme,1,0.071043,44.952547
20111971,48,0,2024-03-08T16:13:15.419Z,male_vraiment_flat_17.wav,0,True,1189,52,Homme,2,0.142086,-82.852461
20111971,48,0,2024-03-08T16:13:15.419Z,male_vraiment_flat_17.wav,0,True,1189,52,Homme,3,0.213129,-89.451177
20111971,48,0,2024-03-08T16:13:15.419Z,male_vraiment_flat_17.wav,0,True,1189,52,Homme,4,0.284172,-149.534475
20111971,48,0,2024-03-08T16:13:15.419Z,male_vraiment_flat_17.wav,0,True,1189,52,Homme,5,0.355215,-107.621144
20111971,48,0,2024-03-08T16:13:15.419Z,male_vraiment_flat_17.wav,0,True,1189,52,Homme,6,0.426259,-93.535165
20111971,48,0,2024-03-08T16:13:15.419Z,male_vraiment_flat_134.wav,1,False,1189,52,Homme,0,0.000000,85.320049
20111971,48,0,2024-03-08T16:13:15.419Z,male_vraiment_flat_134.wav,1,False,1189,52,Homme,1,0.071043,2.147850
20111971,48,0,2024-03-08T16:13:15.419Z,male_vraiment_flat_134.wav,1,False,1189,52,Homme,2,0.142086,140.355465
20111971,48,0,2024-03-08T16:13:15.419Z,male_vraiment_flat_134.wav,1,False,1189,52,Homme,3,0.213129,98.923070
20111971,48,0,2024-03-08T16:13:15.419Z,male_vraiment_flat_134.wav,1,False,1189,52,Homme,4,0.284172,20.388975
20111971,48,0,2024-03-08T16:13:15.419Z,male_vraiment_flat_134.wav,1,False,1189,52,Homme,5,0.355215,-4.239426
20111971,48,0,2024-03-08T16:13:15.419Z,male_vraiment_flat_134.wav,1,False,1189,52,Homme,6,0.426259,83.444299
20111971,49,0,2024-03-08T16:13:15.419Z,male_vraiment_flat_141.wav,0,False,944,52,Homme,0,0.000000,137.275446
20111971,49,0,2024-03-08T16:13:15.419Z,male_vraiment_flat_141.wav,0,False,944,52,Homme,1,0.071043,43.805847
20111971,49,0,2024-03-08T16:13:15.419Z,male_vraiment_flat_141.wav,0,False,944,52,Homme,2,0.142086,-129.344909
20111971,49,0,2024-03-08T16:13:15.419Z,male_vraiment_flat_141.wav,0,False,944,52,Homme,3,0.213129,-123.799171
20111971,49,0,2024-03-08T16:13:15.419Z,male_vraiment_flat_141.wav,0,False,944,52,Homme,4,0.284172,-103.584410
20111971,49,0,2024-03-08T16:13:15.419Z,male_vraiment_flat_141.wav,0,False,944,52,Homme,5,0.355215,8.047141
20111971,49,0,2024-03-08T16:13:15.419Z,male_vraiment_flat_141.wav,0,False,944,52,Homme,6,0.426259,-108.188423
20111971,49,0,2024-03-08T16:13:15.419Z,male_vraiment_flat_47.wav,1,True,944,52,Homme,0,0.000000,11.243959
20111971,49,0,2024-03-08T16:13:15.419Z,male_vraiment_flat_47.wav,1,True,944,52,Homme,1,0.071043,-131.885563
20111971,49,0,2024-03-08T16:13:15.419Z,male_vraiment_flat_47.wav,1,True,944,52,Homme,2,0.142086,22.720944
20111971,49,0,2024-03-08T16:13:15.419Z,male_vraiment_flat_47.wav,1,True,944,52,Homme,3,0.213129,-98.981706
20111971,49,0,2024-03-08T16:13:15.419Z,male_vraiment_flat_47.wav,1,True,944,52,Homme,4,0.284172,-117.392555
20111971,49,0,2024-03-08T16:13:15.419Z,male_vraiment_flat_47.wav,1,True,944,52,Homme,5,0.355215,-7.362816
20111971,49,0,2024-03-08T16:13:15.419Z,male_vraiment_flat_47.wav,1,True,944,52,Homme,6,0.426259,149.963589
20111971,50,1,2024-03-08T16:13:15.419Z,male_vraiment_flat_36.wav,0,False,1008,52,Homme,0,0.000000,-33.837960
20111971,50,1,2024-03-08T16:13:15.419Z,male_vraiment_flat_36.wav,0,False,1008,52,Homme,1,0.071043,102.134309
20111971,50,1,2024-03-08T16:13:15.419Z,male_vraiment_flat_36.wav,0,False,1008,52,Homme,2,0.142086,100.949665
20111971,50,1,2024-03-08T16:13:15.419Z,male_vraiment_flat_36.wav,0,False,1008,52,Homme,3,0.213129,77.352428
20111971,50,1,2024-03-08T16:13:15.419Z,male_vraiment_flat_36.wav,0,False,1008,52,Homme,4,0.284172,-1.995321
20111971,50,1,2024-03-08T16:13:15.419Z,male_vraiment_flat_36.wav,0,False,1008,52,Homme,5,0.355215,-13.382838
20111971,50,1,2024-03-08T16:13:15.419Z,male_vraiment_flat_36.wav,0,False,1008,52,Homme,6,0.426259,-42.807835
20111971,50,1,2024-03-08T16:13:15.419Z,male_vraiment_flat_137.wav,1,True,1008,52,Homme,0,0.000000,80.130674
20111971,50,1,2024-03-08T16:13:15.419Z,male_vraiment_flat_137.wav,1,True,1008,52,Homme,1,0.071043,138.574149
20111971,50,1,2024-03-08T16:13:15.419Z,male_vraiment_flat_137.wav,1,True,1008,52,Homme,2,0.142086,75.493630
20111971,50,1,2024-03-08T16:13:15.419Z,male_vraiment_flat_137.wav,1,True,1008,52,Homme,3,0.213129,-91.745449
20111971,50,1,2024-03-08T16:13:15.419Z,male_vraiment_flat_137.wav,1,True,1008,52,Homme,4,0.284172,67.674634
20111971,50,1,2024-03-08T16:13:15.419Z,male_vraiment_flat_137.wav,1,True,1008,52,Homme,5,0.355215,136.412365
20111971,50,1,2024-03-08T16:13:15.419Z,male_vraiment_flat_137.wav,1,True,1008,52,Homme,6,0.426259,13.296001
20111971,51,1,2024-03-08T16:13:15.419Z,male_vraiment_flat_172.wav,0,True,574,52,Homme,0,0.000000,-63.308139
20111971,51,1,2024-03-08T16:13:15.419Z,male_vraiment_flat_172.wav,0,True,574,52,Homme,1,0.071043,-111.693367
20111971,51,1,2024-03-08T16:13:15.419Z,male_vraiment_flat_172.wav,0,True,574,52,Homme,2,0.142086,-61.444624
20111971,51,1,2024-03-08T16:13:15.419Z,male_vraiment_flat_172.wav,0,True,574,52,Homme,3,0.213129,137.201589
20111971,51,1,2024-03-08T16:13:15.419Z,male_vraiment_flat_172.wav,0,True,574,52,Homme,4,0.284172,-132.973462
20111971,51,1,2024-03-08T16:13:15.419Z,male_vraiment_flat_172.wav,0,True,574,52,Homme,5,0.355215,-126.405577
20111971,51,1,2024-03-08T16:13:15.419Z,male_vraiment_flat_172.wav,0,True,574,52,Homme,6,0.426259,-119.840486
20111971,51,1,2024-03-08T16:13:15.419Z,male_vraiment_flat_10.wav,1,False,574,52,Homme,0,0.000000,-59.283835
20111971,51,1,2024-03-08T16:13:15.419Z,male_vraiment_flat_10.wav,1,False,574,52,Homme,1,0.071043,33.418752
20111971,51,1,2024-03-08T16:13:15.419Z,male_vraiment_flat_10.wav,1,False,574,52,Homme,2,0.142086,-98.686452
20111971,51,1,2024-03-08T16:13:15.419Z,male_vraiment_flat_10.wav,1,False,574,52,Homme,3,0.213129,137.870403
20111971,51,1,2024-03-08T16:13:15.419Z,male_vraiment_flat_10.wav,1,False,574,52,Homme,4,0.284172,-113.384751
20111971,51,1,2024-03-08T16:13:15.419Z,male_vraiment_flat_10.wav,1,False,574,52,Homme,5,0.355215,-122.497954
20111971,51,1,2024-03-08T16:13:15.419Z,male_vraiment_flat_10.wav,1,False,574,52,Homme,6,0.426259,-121.154526
20111971,52,1,2024-03-08T16:13:15.419Z,male_vraiment_flat_86.wav,0,True,924,52,Homme,0,0.000000,85.260205
20111971,52,1,2024-03-08T16:13:15.419Z,male_vraiment_flat_86.wav,0,True,924,52,Homme,1,0.071043,-4.684566
20111971,52,1,2024-03-08T16:13:15.419Z,male_vraiment_flat_86.wav,0,True,924,52,Homme,2,0.142086,133.406345
20111971,52,1,2024-03-08T16:13:15.419Z,male_vraiment_flat_86.wav,0,True,924,52,Homme,3,0.213129,110.454503
20111971,52,1,2024-03-08T16:13:15.419Z,male_vraiment_flat_86.wav,0,True,924,52,Homme,4,0.284172,38.373367
20111971,52,1,2024-03-08T16:13:15.419Z,male_vraiment_flat_86.wav,0,True,924,52,Homme,5,0.355215,75.992097
20111971,52,1,2024-03-08T16:13:15.419Z,male_vraiment_flat_86.wav,0,True,924,52,Homme,6,0.426259,-87.651019
20111971,52,1,2024-03-08T16:13:15.419Z,male_vraiment_flat_188.wav,1,False,924,52,Homme,0,0.000000,-11.484944
20111971,52,1,2024-03-08T16:13:15.419Z,male_vraiment_flat_188.wav,1,False,924,52,Homme,1,0.071043,-70.368872
20111971,52,1,2024-03-08T16:13:15.419Z,male_vraiment_flat_188.wav,1,False,924,52,Homme,2,0.142086,-35.616146
20111971,52,1,2024-03-08T16:13:15.419Z,male_vraiment_flat_188.wav,1,False,924,52,Homme,3,0.213129,0.109627
20111971,52,1,2024-03-08T16:13:15.419Z,male_vraiment_flat_188.wav,1,False,924,52,Homme,4,0.284172,2.553157
20111971,52,1,2024-03-08T16:13:15.419Z,male_vraiment_flat_188.wav,1,False,924,52,Homme,5,0.355215,-21.302793
20111971,52,1,2024-03-08T16:13:15.419Z,male_vraiment_flat_188.wav,1,False,924,52,Homme,6,0.426259,-116.307336
20111971,53,1,2024-03-08T16:13:15.419Z,male_vraiment_flat_187.wav,0,False,949,52,Homme,0,0.000000,-30.403680
20111971,53,1,2024-03-08T16:13:15.419Z,male_vraiment_flat_187.wav,0,False,949,52,Homme,1,0.071043,-60.531290
20111971,53,1,2024-03-08T16:13:15.419Z,male_vraiment_flat_187.wav,0,False,949,52,Homme,2,0.142086,-84.335778
20111971,53,1,2024-03-08T16:13:15.419Z,male_vraiment_flat_187.wav,0,False,949,52,Homme,3,0.213129,-15.670285
20111971,53,1,2024-03-08T16:13:15.419Z,male_vraiment_flat_187.wav,0,False,949,52,Homme,4,0.284172,-56.852158
20111971,53,1,2024-03-08T16:13:15.419Z,male_vraiment_flat_187.wav,0,False,949,52,Homme,5,0.355215,50.399162
20111971,53,1,2024-03-08T16:13:15.419Z,male_vraiment_flat_187.wav,0,False,949,52,Homme,6,0.426259,83.384475
20111971,53,1,2024-03-08T16:13:15.419Z,male_vraiment_flat_73.wav,1,True,949,52,Homme,0,0.000000,116.322519
20111971,53,1,2024-03-08T16:13:15.419Z,male_vraiment_flat_73.wav,1,True,949,52,Homme,1,0.071043,-36.491811
20111971,53,1,2024-03-08T16:13:15.419Z,male_vraiment_flat_73.wav,1,True,949,52,Homme,2,0.142086,56.992902
20111971,53,1,2024-03-08T16:13:15.419Z,male_vraiment_flat_73.wav,1,True,949,52,Homme,3,0.213129,-102.405714
20111971,53,1,2024-03-08T16:13:15.419Z,male_vraiment_flat_73.wav,1,True,949,52,Homme,4,0.284172,18.027278
20111971,53,1,2024-03-08T16:13:15.419Z,male_vraiment_flat_73.wav,1,True,949,52,Homme,5,0.355215,92.986932
20111971,53,1,2024-03-08T16:13:15.419Z,male_vraiment_flat_73.wav,1,True,949,52,Homme,6,0.426259,-12.148577
20111971,54,1,2024-03-08T16:13:15.419Z,male_vraiment_flat_27.wav,0,False,584,52,Homme,0,0.000000,-44.196026
20111971,54,1,2024-03-08T16:13:15.419Z,male_vraiment_flat_27.wav,0,False,584,52,Homme,1,0.071043,72.435582
20111971,54,1,2024-03-08T16:13:15.419Z,male_vraiment_flat_27.wav,0,False,584,52,Homme,2,0.142086,30.880154
20111971,54,1,2024-03-08T16:13:15.419Z,male_vraiment_flat_27.wav,0,False,584,52,Homme,3,0.213129,-98.055697
20111971,54,1,2024-03-08T16:13:15.419Z,male_vraiment_flat_27.wav,0,False,584,52,Homme,4,0.284172,83.700413
20111971,54,1,2024-03-08T16:13:15.419Z,male_vraiment_flat_27.wav,0,False,584,52,Homme,5,0.355215,23.865121
20111971,54,1,2024-03-08T16:13:15.419Z,male_vraiment_flat_27.wav,0,False,584,52,Homme,6,0.426259,-44.006115
20111971,54,1,2024-03-08T16:13:15.419Z,male_vraiment_flat_9.wav,1,True,584,52,Homme,0,0.000000,85.332288
20111971,54,1,2024-03-08T16:13:15.419Z,male_vraiment_flat_9.wav,1,True,584,52,Homme,1,0.071043,-113.949520
20111971,54,1,2024-03-08T16:13:15.419Z,male_vraiment_flat_9.wav,1,True,584,52,Homme,2,0.142086,22.848070
20111971,54,1,2024-03-08T16:13:15.419Z,male_vraiment_flat_9.wav,1,True,584,52,Homme,3,0.213129,-135.528843
20111971,54,1,2024-03-08T16:13:15.419Z,male_vraiment_flat_9.wav,1,True,584,52,Homme,4,0.284172,76.460330
20111971,54,1,2024-03-08T16:13:15.419Z,male_vraiment_flat_9.wav,1,True,584,52,Homme,5,0.355215,72.455461
20111971,54,1,2024-03-08T16:13:15.419Z,male_vraiment_flat_9.wav,1,True,584,52,Homme,6,0.426259,-135.542556
20111971,55,1,2024-03-08T16:13:15.419Z,male_vraiment_flat_161.wav,0,False,707,52,Homme,0,0.000000,108.108554
20111971,55,1,2024-03-08T16:13:15.419Z,male_vraiment_flat_161.wav,0,False,707,52,Homme,1,0.071043,47.804173
20111971,55,1,2024-03-08T16:13:15.419Z,male_vraiment_flat_161.wav,0,False,707,52,Homme,2,0.142086,-38.721105
20111971,55,1,2024-03-08T16:13:15.419Z,male_vraiment_flat_161.wav,0,False,707,52,Homme,3,0.213129,108.595174
20111971,55,1,2024-03-08T16:13:15.419Z,male_vraiment_flat_161.wav,0,False,707,52,Homme,4,0.284172,94.751032
20111971,55,1,2024-03-08T16:13:15.419Z,male_vraiment_flat_161.wav,0,False,707,52,Homme,5,0.355215,-22.399732
20111971,55,1,2024-03-08T16:13:15.419Z,male_vraiment_flat_161.wav,0,False,707,52,Homme,6,0.426259,88.139884
20111971,55,1,2024-03-08T16:13:15.419Z,male_vraiment_flat_61.wav,1,True,707,52,Homme,0,0.000000,-131.156457
20111971,55,1,2024-03-08T16:13:15.419Z,male_vraiment_flat_61.wav,1,True,707,52,Homme,1,0.071043,-97.865916
20111971,55,1,2024-03-08T16:13:15.419Z,male_vraiment_flat_61.wav,1,True,707,52,Homme,2,0.142086,61.528867
20111971,55,1,2024-03-08T16:13:15.419Z,male_vraiment_flat_61.wav,1,True,707,52,Homme,3,0.213129,-10.532302
20111971,55,1,2024-03-08T16:13:15.419Z,male_vraiment_flat_61.wav,1,True,707,52,Homme,4,0.284172,-59.471070
20111971,55,1,2024-03-08T16:13:15.419Z,male_vraiment_flat_61.wav,1,True,707,52,Homme,5,0.355215,77.665776
20111971,55,1,2024-03-08T16:13:15.419Z,male_vraiment_flat_61.wav,1,True,707,52,Homme,6,0.426259,-95.375701
20111971,56,1,2024-03-08T16:13:15.419Z,male_vraiment_flat_20.wav,0,False,739,52,Homme,0,0.000000,-58.370476
20111971,56,1,2024-03-08T16:13:15.419Z,male_vraiment_flat_20.wav,0,False,739,52,Homme,1,0.071043,112.073529
20111971,56,1,2024-03-08T16:13:15.419Z,male_vraiment_flat_20.wav,0,False,739,52,Homme,2,0.142086,29.472628
20111971,56,1,2024-03-08T16:13:15.419Z,male_vraiment_flat_20.wav,0,False,739,52,Homme,3,0.213129,-22.374222
20111971,56,1,2024-03-08T16:13:15.419Z,male_vraiment_flat_20.wav,0,False,739,52,Homme,4,0.284172,-146.515998
20111971,56,1,2024-03-08T16:13:15.419Z,male_vraiment_flat_20.wav,0,False,739,52,Homme,5,0.355215,47.280720
20111971,56,1,2024-03-08T16:13:15.419Z,male_vraiment_flat_20.wav,0,False,739,52,Homme,6,0.426259,140.553925
20111971,56,1,2024-03-08T16:13:15.419Z,male_vraiment_flat_181.wav,1,True,739,52,Homme,0,0.000000,87.984579
20111971,56,1,2024-03-08T16:13:15.419Z,male_vraiment_flat_181.wav,1,True,739,52,Homme,1,0.071043,-52.749156
20111971,56,1,2024-03-08T16:13:15.419Z,male_vraiment_flat_181.wav,1,True,739,52,Homme,2,0.142086,-81.744540
20111971,56,1,2024-03-08T16:13:15.419Z,male_vraiment_flat_181.wav,1,True,739,52,Homme,3,0.213129,-103.539742
20111971,56,1,2024-03-08T16:13:15.419Z,male_vraiment_flat_181.wav,1,True,739,52,Homme,4,0.284172,51.143910
20111971,56,1,2024-03-08T16:13:15.419Z,male_vraiment_flat_181.wav,1,True,739,52,Homme,5,0.355215,89.293467
20111971,56,1,2024-03-08T16:13:15.419Z,male_vraiment_flat_181.wav,1,True,739,52,Homme,6,0.426259,-33.289981
20111971,57,1,2024-03-08T16:13:15.419Z,male_vraiment_flat_175.wav,0,True,593,52,Homme,0,0.000000,-48.933192
20111971,57,1,2024-03-08T16:13:15.419Z,male_vraiment_flat_175.wav,0,True,593,52,Homme,1,0.071043,23.459372
20111971,57,1,2024-03-08T16:13:15.419Z,male_vraiment_flat_175.wav,0,True,593,52,Homme,2,0.142086,-82.944560
20111971,57,1,2024-03-08T16:13:15.419Z,male_vraiment_flat_175.wav,0,True,593,52,Homme,3,0.213129,-41.749231
20111971,57,1,2024-03-08T16:13:15.419Z,male_vraiment_flat_175.wav,0,True,593,52,Homme,4,0.284172,4.976289
20111971,57,1,2024-03-08T16:13:15.419Z,male_vraiment_flat_175.wav,0,True,593,52,Homme,5,0.355215,52.438424
20111971,57,1,2024-03-08T16:13:15.419Z,male_vraiment_flat_175.wav,0,True,593,52,Homme,6,0.426259,-117.325248
20111971,57,1,2024-03-08T16:13:15.419Z,male_vraiment_flat_136.wav,1,False,593,52,Homme,0,0.000000,-47.296851
20111971,57,1,2024-03-08T16:13:15.419Z,male_vraiment_flat_136.wav,1,False,593,52,Homme,1,0.071043,-58.430070
20111971,57,1,2024-03-08T16:13:15.419Z,male_vraiment_flat_136.wav,1,False,593,52,Homme,2,0.142086,-0.935981
20111971,57,1,2024-03-08T16:13:15.419Z,male_vraiment_flat_136.wav,1,False,593,52,Homme,3,0.213129,-128.690729
20111971,57,1,2024-03-08T16:13:15.419Z,male_vraiment_flat_136.wav,1,False,593,52,Homme,4,0.284172,49.658863
20111971,57,1,2024-03-08T16:13:15.419Z,male_vraiment_flat_136.wav,1,False,593,52,Homme,5,0.355215,66.569477
20111971,57,1,2024-03-08T16:13:15.419Z,male_vraiment_flat_136.wav,1,False,593,52,Homme,6,0.426259,92.598952
20111971,58,1,2024-03-08T16:13:15.419Z,male_vraiment_flat_176.wav,0,False,517,52,Homme,0,0.000000,-0.886832
20111971,58,1,2024-03-08T16:13:15.419Z,male_vraiment_flat_176.wav,0,False,517,52,Homme,1,0.071043,48.604994
20111971,58,1,2024-03-08T16:13:15.419Z,male_vraiment_flat_176.wav,0,False,517,52,Homme,2,0.142086,33.352714
20111971,58,1,2024-03-08T16:13:15.419Z,male_vraiment_flat_176.wav,0,False,517,52,Homme,3,0.213129,-55.356586
20111971,58,1,2024-03-08T16:13:15.419Z,male_vraiment_flat_176.wav,0,False,517,52,Homme,4,0.284172,-13.903711
20111971,58,1,2024-03-08T16:13:15.419Z,male_vraiment_flat_176.wav,0,False,517,52,Homme,5,0.355215,54.096530
20111971,58,1,2024-03-08T16:13:15.419Z,male_vraiment_flat_176.wav,0,False,517,52,Homme,6,0.426259,-77.791606
20111971,58,1,2024-03-08T16:13:15.419Z,male_vraiment_flat_65.wav,1,True,517,52,Homme,0,0.000000,104.278510
20111971,58,1,2024-03-08T16:13:15.419Z,male_vraiment_flat_65.wav,1,True,517,52,Homme,1,0.071043,120.742750
20111971,58,1,2024-03-08T16:13:15.419Z,male_vraiment_flat_65.wav,1,True,517,52,Homme,2,0.142086,116.963717
20111971,58,1,2024-03-08T16:13:15.419Z,male_vraiment_flat_65.wav,1,True,517,52,Homme,3,0.213129,-30.167489
20111971,58,1,2024-03-08T16:13:15.419Z,male_vraiment_flat_65.wav,1,True,517,52,Homme,4,0.284172,58.482575
20111971,58,1,2024-03-08T16:13:15.419Z,male_vraiment_flat_65.wav,1,True,517,52,Homme,5,0.355215,-35.240720
20111971,58,1,2024-03-08T16:13:15.419Z,male_vraiment_flat_65.wav,1,True,517,52,Homme,6,0.426259,-49.851341
20111971,59,1,2024-03-08T16:13:15.419Z,male_vraiment_flat_117.wav,0,False,402,52,Homme,0,0.000000,20.648074
20111971,59,1,2024-03-08T16:13:15.419Z,male_vraiment_flat_117.wav,0,False,402,52,Homme,1,0.071043,145.233438
20111971,59,1,2024-03-08T16:13:15.419Z,male_vraiment_flat_117.wav,0,False,402,52,Homme,2,0.142086,42.346521
20111971,59,1,2024-03-08T16:13:15.419Z,male_vraiment_flat_117.wav,0,False,402,52,Homme,3,0.213129,-116.594338
20111971,59,1,2024-03-08T16:13:15.419Z,male_vraiment_flat_117.wav,0,False,402,52,Homme,4,0.284172,94.892274
20111971,59,1,2024-03-08T16:13:15.419Z,male_vraiment_flat_117.wav,0,False,402,52,Homme,5,0.355215,-123.170662
20111971,59,1,2024-03-08T16:13:15.419Z,male_vraiment_flat_117.wav,0,False,402,52,Homme,6,0.426259,83.715702
20111971,59,1,2024-03-08T16:13:15.419Z,male_vraiment_flat_153.wav,1,True,402,52,Homme,0,0.000000,-62.105340
20111971,59,1,2024-03-08T16:13:15.419Z,male_vraiment_flat_153.wav,1,True,402,52,Homme,1,0.071043,-52.997588
20111971,59,1,2024-03-08T16:13:15.419Z,male_vraiment_flat_153.wav,1,True,402,52,Homme,2,0.142086,-76.077591
20111971,59,1,2024-03-08T16:13:15.419Z,male_vraiment_flat_153.wav,1,True,402,52,Homme,3,0.213129,-18.807121
20111971,59,1,2024-03-08T16:13:15.419Z,male_vraiment_flat_153.wav,1,True,402,52,Homme,4,0.284172,-115.396331
20111971,59,1,2024-03-08T16:13:15.419Z,male_vraiment_flat_153.wav,1,True,402,52,Homme,5,0.355215,-128.292537
20111971,59,1,2024-03-08T16:13:15.419Z,male_vraiment_flat_153.wav,1,True,402,52,Homme,6,0.426259,-78.650880
20111971,60,1,2024-03-08T16:13:15.419Z,male_vraiment_flat_115.wav,0,True,571,52,Homme,0,0.000000,-100.568741
20111971,60,1,2024-03-08T16:13:15.419Z,male_vraiment_flat_115.wav,0,True,571,52,Homme,1,0.071043,57.843647
20111971,60,1,2024-03-08T16:13:15.419Z,male_vraiment_flat_115.wav,0,True,571,52,Homme,2,0.142086,-30.946862
20111971,60,1,2024-03-08T16:13:15.419Z,male_vraiment_flat_115.wav,0,True,571,52,Homme,3,0.213129,-117.622484
20111971,60,1,2024-03-08T16:13:15.419Z,male_vraiment_flat_115.wav,0,True,571,52,Homme,4,0.284172,12.634833
20111971,60,1,2024-03-08T16:13:15.419Z,male_vraiment_flat_115.wav,0,True,571,52,Homme,5,0.355215,-81.533692
20111971,60,1,2024-03-08T16:13:15.419Z,male_vraiment_flat_115.wav,0,True,571,52,Homme,6,0.426259,-72.293995
20111971,60,1,2024-03-08T16:13:15.419Z,male_vraiment_flat_51.wav,1,False,571,52,Homme,0,0.000000,130.517111
20111971,60,1,2024-03-08T16:13:15.419Z,male_vraiment_flat_51.wav,1,False,571,52,Homme,1,0.071043,138.869679
20111971,60,1,2024-03-08T16:13:15.419Z,male_vraiment_flat_51.wav,1,False,571,52,Homme,2,0.142086,-34.276776
20111971,60,1,2024-03-08T16:13:15.419Z,male_vraiment_flat_51.wav,1,False,571,52,Homme,3,0.213129,76.935346
20111971,60,1,2024-03-08T16:13:15.419Z,male_vraiment_flat_51.wav,1,False,571,52,Homme,4,0.284172,-118.523911
20111971,60,1,2024-03-08T16:13:15.419Z,male_vraiment_flat_51.wav,1,False,571,52,Homme,5,0.355215,-103.328524
20111971,60,1,2024-03-08T16:13:15.419Z,male_vraiment_flat_51.wav,1,False,571,52,Homme,6,0.426259,-14.442096
20111971,61,1,2024-03-08T16:13:15.419Z,male_vraiment_flat_110.wav,0,False,847,52,Homme,0,0.000000,-78.850505
20111971,61,1,2024-03-08T16:13:15.419Z,male_vraiment_flat_110.wav,0,False,847,52,Homme,1,0.071043,-96.953533
20111971,61,1,2024-03-08T16:13:15.419Z,male_vraiment_flat_110.wav,0,False,847,52,Homme,2,0.142086,-38.365791
20111971,61,1,2024-03-08T16:13:15.419Z,male_vraiment_flat_110.wav,0,False,847,52,Homme,3,0.213129,77.506607
20111971,61,1,2024-03-08T16:13:15.419Z,male_vraiment_flat_110.wav,0,False,847,52,Homme,4,0.284172,-64.506238
20111971,61,1,2024-03-08T16:13:15.419Z,male_vraiment_flat_110.wav,0,False,847,52,Homme,5,0.355215,15.353748
20111971,61,1,2024-03-08T16:13:15.419Z,male_vraiment_flat_110.wav,0,False,847,52,Homme,6,0.426259,121.287299
20111971,61,1,2024-03-08T16:13:15.419Z,male_vraiment_flat_39.wav,1,True,847,52,Homme,0,0.000000,111.266402
20111971,61,1,2024-03-08T16:13:15.419Z,male_vraiment_flat_39.wav,1,True,847,52,Homme,1,0.071043,99.799676
20111971,61,1,2024-03-08T16:13:15.419Z,male_vraiment_flat_39.wav,1,True,847,52,Homme,2,0.142086,45.272629
20111971,61,1,2024-03-08T16:13:15.419Z,male_vraiment_flat_39.wav,1,True,847,52,Homme,3,0.213129,-145.406877
20111971,61,1,2024-03-08T16:13:15.419Z,male_vraiment_flat_39.wav,1,True,847,52,Homme,4,0.284172,46.363124
20111971,61,1,2024-03-08T16:13:15.419Z,male_vraiment_flat_39.wav,1,True,847,52,Homme,5,0.355215,90.908213
20111971,61,1,2024-03-08T16:13:15.419Z,male_vraiment_flat_39.wav,1,True,847,52,Homme,6,0.426259,-13.802222
20111971,62,1,2024-03-08T16:13:15.419Z,male_vraiment_flat_1.wav,0,False,729,52,Homme,0,0.000000,-87.527114
20111971,62,1,2024-03-08T16:13:15.419Z,male_vraiment_flat_1.wav,0,False,729,52,Homme,1,0.071043,-24.885537
20111971,62,1,2024-03-08T16:13:15.419Z,male_vraiment_flat_1.wav,0,False,729,52,Homme,2,0.142086,25.492299
20111971,62,1,2024-03-08T16:13:15.419Z,male_vraiment_flat_1.wav,0,False,729,52,Homme,3,0.213129,-85.109295
20111971,62,1,2024-03-08T16:13:15.419Z,male_vraiment_flat_1.wav,0,False,729,52,Homme,4,0.284172,41.982644
20111971,62,1,2024-03-08T16:13:15.419Z,male_vraiment_flat_1.wav,0,False,729,52,Homme,5,0.355215,-147.448489
20111971,62,1,2024-03-08T16:13:15.419Z,male_vraiment_flat_1.wav,0,False,729,52,Homme,6,0.426259,3.412386
20111971,62,1,2024-03-08T16:13:15.419Z,male_vraiment_flat_113.wav,1,True,729,52,Homme,0,0.000000,52.176539
20111971,62,1,2024-03-08T16:13:15.419Z,male_vraiment_flat_113.wav,1,True,729,52,Homme,1,0.071043,52.904766
20111971,62,1,2024-03-08T16:13:15.419Z,male_vraiment_flat_113.wav,1,True,729,52,Homme,2,0.142086,-138.473207
20111971,62,1,2024-03-08T16:13:15.419Z,male_vraiment_flat_113.wav,1,True,729,52,Homme,3,0.213129,-65.217652
20111971,62,1,2024-03-08T16:13:15.419Z,male_vraiment_flat_113.wav,1,True,729,52,Homme,4,0.284172,3.928053
20111971,62,1,2024-03-08T16:13:15.419Z,male_vraiment_flat_113.wav,1,True,729,52,Homme,5,0.355215,69.229623
20111971,62,1,2024-03-08T16:13:15.419Z,male_vraiment_flat_113.wav,1,True,729,52,Homme,6,0.426259,-85.157528
20111971,63,1,2024-03-08T16:13:15.419Z,male_vraiment_flat_64.wav,0,True,1117,52,Homme,0,0.000000,113.461811
20111971,63,1,2024-03-08T16:13:15.419Z,male_vraiment_flat_64.wav,0,True,1117,52,Homme,1,0.071043,60.375974
20111971,63,1,2024-03-08T16:13:15.419Z,male_vraiment_flat_64.wav,0,True,1117,52,Homme,2,0.142086,-103.339599
20111971,63,1,2024-03-08T16:13:15.419Z,male_vraiment_flat_64.wav,0,True,1117,52,Homme,3,0.213129,103.179307
20111971,63,1,2024-03-08T16:13:15.419Z,male_vraiment_flat_64.wav,0,True,1117,52,Homme,4,0.284172,81.101135
20111971,63,1,2024-03-08T16:13:15.419Z,male_vraiment_flat_64.wav,0,True,1117,52,Homme,5,0.355215,-3.861127
20111971,63,1,2024-03-08T16:13:15.419Z,male_vraiment_flat_64.wav,0,True,1117,52,Homme,6,0.426259,-77.158959
20111971,63,1,2024-03-08T16:13:15.419Z,male_vraiment_flat_7.wav,1,False,1117,52,Homme,0,0.000000,43.823319
20111971,63,1,2024-03-08T16:13:15.419Z,male_vraiment_flat_7.wav,1,False,1117,52,Homme,1,0.071043,72.049148
20111971,63,1,2024-03-08T16:13:15.419Z,male_vraiment_flat_7.wav,1,False,1117,52,Homme,2,0.142086,-136.415247
20111971,63,1,2024-03-08T16:13:15.419Z,male_vraiment_flat_7.wav,1,False,1117,52,Homme,3,0.213129,44.015310
20111971,63,1,2024-03-08T16:13:15.419Z,male_vraiment_flat_7.wav,1,False,1117,52,Homme,4,0.284172,7.208530
20111971,63,1,2024-03-08T16:13:15.419Z,male_vraiment_flat_7.wav,1,False,1117,52,Homme,5,0.355215,18.587432
20111971,63,1,2024-03-08T16:13:15.419Z,male_vraiment_flat_7.wav,1,False,1117,52,Homme,6,0.426259,60.126473
20111971,64,1,2024-03-08T16:13:15.419Z,male_vraiment_flat_53.wav,0,True,917,52,Homme,0,0.000000,12.794375
20111971,64,1,2024-03-08T16:13:15.419Z,male_vraiment_flat_53.wav,0,True,917,52,Homme,1,0.071043,72.488609
20111971,64,1,2024-03-08T16:13:15.419Z,male_vraiment_flat_53.wav,0,True,917,52,Homme,2,0.142086,82.753367
20111971,64,1,2024-03-08T16:13:15.419Z,male_vraiment_flat_53.wav,0,True,917,52,Homme,3,0.213129,-11.724600
20111971,64,1,2024-03-08T16:13:15.419Z,male_vraiment_flat_53.wav,0,True,917,52,Homme,4,0.284172,8.499299
20111971,64,1,2024-03-08T16:13:15.419Z,male_vraiment_flat_53.wav,0,True,917,52,Homme,5,0.355215,84.468722
20111971,64,1,2024-03-08T16:13:15.419Z,male_vraiment_flat_53.wav,0,True,917,52,Homme,6,0.426259,-88.580062
20111971,64,1,2024-03-08T16:13:15.419Z,male_vraiment_flat_180.wav,1,False,917,52,Homme,0,0.000000,-17.910938
20111971,64,1,2024-03-08T16:13:15.419Z,male_vraiment_flat_180.wav,1,False,917,52,Homme,1,0.071043,24.825304
20111971,64,1,2024-03-08T16:13:15.419Z,male_vraiment_flat_180.wav,1,False,917,52,Homme,2,0.142086,-141.305904
20111971,64,1,2024-03-08T16:13:15.419Z,male_vraiment_flat_180.wav,1,False,917,52,Homme,3,0.213129,39.379988
20111971,64,1,2024-03-08T16:13:15.419Z,male_vraiment_flat_180.wav,1,False,917,52,Homme,4,0.284172,-132.932424
20111971,64,1,2024-03-08T16:13:15.419Z,male_vraiment_flat_180.wav,1,False,917,52,Homme,5,0.355215,-6.123363
20111971,64,1,2024-03-08T16:13:15.419Z,male_vraiment_flat_180.wav,1,False,917,52,Homme,6,0.426259,-0.737662
20111971,65,1,2024-03-08T16:13:15.419Z,male_vraiment_flat_131.wav,0,True,2639,52,Homme,0,0.000000,107.175705
20111971,65,1,2024-03-08T16:13:15.419Z,male_vraiment_flat_131.wav,0,True,2639,52,Homme,1,0.071043,81.997533
20111971,65,1,2024-03-08T16:13:15.419Z,male_vraiment_flat_131.wav,0,True,2639,52,Homme,2,0.142086,53.236564
20111971,65,1,2024-03-08T16:13:15.419Z,male_vraiment_flat_131.wav,0,True,2639,52,Homme,3,0.213129,108.962563
20111971,65,1,2024-03-08T16:13:15.419Z,male_vraiment_flat_131.wav,0,True,2639,52,Homme,4,0.284172,-22.910156
20111971,65,1,2024-03-08T16:13:15.419Z,male_vraiment_flat_131.wav,0,True,2639,52,Homme,5,0.355215,133.743101
20111971,65,1,2024-03-08T16:13:15.419Z,male_vraiment_flat_131.wav,0,True,2639,52,Homme,6,0.426259,98.652547
20111971,65,1,2024-03-08T16:13:15.419Z,male_vraiment_flat_156.wav,1,False,2639,52,Homme,0,0.000000,62.995907
20111971,65,1,2024-03-08T16:13:15.419Z,male_vraiment_flat_156.wav,1,False,2639,52,Homme,1,0.071043,-119.801161
20111971,65,1,2024-03-08T16:13:15.419Z,male_vraiment_flat_156.wav,1,False,2639,52,Homme,2,0.142086,-125.261471
20111971,65,1,2024-03-08T16:13:15.419Z,male_vraiment_flat_156.wav,1,False,2639,52,Homme,3,0.213129,110.918732
20111971,65,1,2024-03-08T16:13:15.419Z,male_vraiment_flat_156.wav,1,False,2639,52,Homme,4,0.284172,-27.635219
20111971,65,1,2024-03-08T16:13:15.419Z,male_vraiment_flat_156.wav,1,False,2639,52,Homme,5,0.355215,57.926930
20111971,65,1,2024-03-08T16:13:15.419Z,male_vraiment_flat_156.wav,1,False,2639,52,Homme,6,0.426259,-85.703842
20111971,66,1,2024-03-08T16:13:15.419Z,male_vraiment_flat_125.wav,0,False,1493,52,Homme,0,0.000000,-40.862052
