subj,patient,date,session,part,trial,stim,stim_order,segment,segment_time,pitch,response,rt
16,0,19-May-2018,1,1,1,Sub16_Trial1_0,0,0,0,-56.792569,True,1.565
16,0,19-May-2018,1,1,1,Sub16_Trial1_0,0,1,1,13.991125,True,1.565
16,0,19-May-2018,1,1,1,Sub16_Trial1_0,0,2,2,28.998635,True,1.565
16,0,19-May-2018,1,1,1,Sub16_Trial1_0,0,3,3,115.967469,True,1.565
16,0,19-May-2018,1,1,1,Sub16_Trial1_0,0,4,4,-117.090027,True,1.565
16,0,19-May-2018,1,1,1,Sub16_Trial1_0,0,5,5,-49.354922,True,1.565
16,0,19-May-2018,1,1,1,Sub16_Trial1_0,0,6,6,-77.925786,True,1.565
16,0,19-May-2018,1,1,1,Sub16_Trial1_1,1,0,0,29.794202,False,1.565
16,0,19-May-2018,1,1,1,Sub16_Trial1_1,1,1,1,116.223351,False,1.565
16,0,19-May-2018,1,1,1,Sub16_Trial1_1,1,2,2,55.87733,False,1.565
16,0,19-May-2018,1,1,1,Sub16_Trial1_1,1,3,3,-139.427494,False,1.565
16,0,19-May-2018,1,1,1,Sub16_Trial1_1,1,4,4,191.013975,False,1.565
16,0,19-May-2018,1,1,1,Sub16_Trial1_1,1,5,5,121.2836,False,1.565
16,0,19-May-2018,1,1,1,Sub16_Trial1_1,1,6,6,82.566675,False,1.565
16,0,19-May-2018,1,1,2,Sub16_Trial2_0,0,0,0,19.929142,False,3.211
16,0,19-May-2018,1,1,2,Sub16_Trial2_0,0,1,1,66.492471,False,3.211
16,0,19-May-2018,1,1,2,Sub16_Trial2_0,0,2,2,-35.686037,False,3.211
16,0,19-May-2018,1,1,2,Sub16_Trial2_0,0,3,3,16.242184,False,3.211
16,0,19-May-2018,1,1,2,Sub16_Trial2_0,0,4,4,-65.897036,False,3.211
16,0,19-May-2018,1,1,2,Sub16_Trial2_0,0,5,5,50.752916,False,3.211
16,0,19-May-2018,1,1,2,Sub16_Trial2_0,0,6,6,-8.316176,False,3.211
16,0,19-May-2018,1,1,2,Sub16_Trial2_1,1,0,0,-79.657357,True,3.211
16,0,19-May-2018,1,1,2,Sub16_Trial2_1,1,1,1,74.41137,True,3.211
16,0,19-May-2018,1,1,2,Sub16_Trial2_1,1,2,2,-139.856345,True,3.211
16,0,19-May-2018,1,1,2,Sub16_Trial2_1,1,3,3,-6.626855,True,3.211
16,0,19-May-2018,1,1,2,Sub16_Trial2_1,1,4,4,-60.359038,True,3.211
16,0,19-May-2018,1,1,2,Sub16_Trial2_1,1,5,5,-40.105355,True,3.211
16,0,19-May-2018,1,1,2,Sub16_Trial2_1,1,6,6,-118.640602,True,3.211
16,0,19-May-2018,1,1,3,Sub16_Trial3_0,0,0,0,68.441804,False,1.151
16,0,19-May-2018,1,1,3,Sub16_Trial3_0,0,1,1,-138.898758,False,1.151
16,0,19-May-2018,1,1,3,Sub16_Trial3_0,0,2,2,-4.015713,False,1.151
16,0,19-May-2018,1,1,3,Sub16_Trial3_0,0,3,3,2.471408,False,1.151
16,0,19-May-2018,1,1,3,Sub16_Trial3_0,0,4,4,-33.673552,False,1.151
16,0,19-May-2018,1,1,3,Sub16_Trial3_0,0,5,5,-29.634606,False,1.151
16,0,19-May-2018,1,1,3,Sub16_Trial3_0,0,6,6,-80.568004,False,1.151
16,0,19-May-2018,1,1,3,Sub16_Trial3_1,1,0,0,32.087202,True,1.151
16,0,19-May-2018,1,1,3,Sub16_Trial3_1,1,1,1,-30.557594,True,1.151
16,0,19-May-2018,1,1,3,Sub16_Trial3_1,1,2,2,50.288068,True,1.151
16,0,19-May-2018,1,1,3,Sub16_Trial3_1,1,3,3,-98.359342,True,1.151
16,0,19-May-2018,1,1,3,Sub16_Trial3_1,1,4,4,-84.856953,True,1.151
16,0,19-May-2018,1,1,3,Sub16_Trial3_1,1,5,5,133.168533,True,1.151
16,0,19-May-2018,1,1,3,Sub16_Trial3_1,1,6,6,-98.556262,True,1.151
16,0,19-May-2018,1,1,4,Sub16_Trial4_0,0,0,0,-31.432052,False,1.596
16,0,19-May-2018,1,1,4,Sub16_Trial4_0,0,1,1,-41.683209,False,1.596
16,0,19-May-2018,1,1,4,Sub16_Trial4_0,0,2,2,-30.708475,False,1.596
16,0,19-May-2018,1,1,4,Sub16_Trial4_0,0,3,3,122.903638,False,1.596
16,0,19-May-2018,1,1,4,Sub16_Trial4_0,0,4,4,-87.548274,False,1.596
16,0,19-May-2018,1,1,4,Sub16_Trial4_0,0,5,5,78.513924,False,1.596
16,0,19-May-2018,1,1,4,Sub16_Trial4_0,0,6,6,-38.553725,False,1.596
16,0,19-May-2018,1,1,4,Sub16_Trial4_1,1,0,0,-33.077544,True,1.596
16,0,19-May-2018,1,1,4,Sub16_Trial4_1,1,1,1,-57.888378,True,1.596
16,0,19-May-2018,1,1,4,Sub16_Trial4_1,1,2,2,64.870728,True,1.596
16,0,19-May-2018,1,1,4,Sub16_Trial4_1,1,3,3,-36.521647,True,1.596
16,0,19-May-2018,1,1,4,Sub16_Trial4_1,1,4,4,-6.084168,True,1.596
16,0,19-May-2018,1,1,4,Sub16_Trial4_1,1,5,5,-11.821126,True,1.596
16,0,19-May-2018,1,1,4,Sub16_Trial4_1,1,6,6,137.608704,True,1.596
16,0,19-May-2018,1,1,5,Sub16_Trial5_0,0,0,0,-23.440697,False,2.711
16,0,19-May-2018,1,1,5,Sub16_Trial5_0,0,1,1,47.991292,False,2.711
16,0,19-May-2018,1,1,5,Sub16_Trial5_0,0,2,2,76.130232,False,2.711
16,0,19-May-2018,1,1,5,Sub16_Trial5_0,0,3,3,-34.878388,False,2.711
16,0,19-May-2018,1,1,5,Sub16_Trial5_0,0,4,4,-136.113791,False,2.711
16,0,19-May-2018,1,1,5,Sub16_Trial5_0,0,5,5,-40.492801,False,2.711
16,0,19-May-2018,1,1,5,Sub16_Trial5_0,0,6,6,-31.759163,False,2.711
16,0,19-May-2018,1,1,5,Sub16_Trial5_1,1,0,0,103.384958,True,2.711
16,0,19-May-2018,1,1,5,Sub16_Trial5_1,1,1,1,97.871221,True,2.711
16,0,19-May-2018,1,1,5,Sub16_Trial5_1,1,2,2,4.310183,True,2.711
16,0,19-May-2018,1,1,5,Sub16_Trial5_1,1,3,3,68.1123,True,2.711
16,0,19-May-2018,1,1,5,Sub16_Trial5_1,1,4,4,12.597767,True,2.711
16,0,19-May-2018,1,1,5,Sub16_Trial5_1,1,5,5,16.280734,True,2.711
16,0,19-May-2018,1,1,5,Sub16_Trial5_1,1,6,6,15.096774,True,2.711
16,0,19-May-2018,1,1,6,Sub16_Trial6_0,0,0,0,24.797395,False,1.899
16,0,19-May-2018,1,1,6,Sub16_Trial6_0,0,1,1,-105.861107,False,1.899
16,0,19-May-2018,1,1,6,Sub16_Trial6_0,0,2,2,-77.060552,False,1.899
16,0,19-May-2018,1,1,6,Sub16_Trial6_0,0,3,3,-171.309717,False,1.899
16,0,19-May-2018,1,1,6,Sub16_Trial6_0,0,4,4,-56.500605,False,1.899
16,0,19-May-2018,1,1,6,Sub16_Trial6_0,0,5,5,-22.703846,False,1.899
16,0,19-May-2018,1,1,6,Sub16_Trial6_0,0,6,6,56.141118,False,1.899
16,0,19-May-2018,1,1,6,Sub16_Trial6_1,1,0,0,21.939644,True,1.899
16,0,19-May-2018,1,1,6,Sub16_Trial6_1,1,1,1,76.467856,True,1.899
16,0,19-May-2018,1,1,6,Sub16_Trial6_1,1,2,2,17.884639,True,1.899
16,0,19-May-2018,1,1,6,Sub16_Trial6_1,1,3,3,-48.407454,True,1.899
16,0,19-May-2018,1,1,6,Sub16_Trial6_1,1,4,4,5.221332,True,1.899
16,0,19-May-2018,1,1,6,Sub16_Trial6_1,1,5,5,-1.006258,True,1.899
16,0,19-May-2018,1,1,6,Sub16_Trial6_1,1,6,6,-41.110868,True,1.899
16,0,19-May-2018,1,1,7,Sub16_Trial7_0,0,0,0,49.09739,False,1.341
16,0,19-May-2018,1,1,7,Sub16_Trial7_0,0,1,1,112.00905,False,1.341
16,0,19-May-2018,1,1,7,Sub16_Trial7_0,0,2,2,-120.602848,False,1.341
16,0,19-May-2018,1,1,7,Sub16_Trial7_0,0,3,3,-22.012331,False,1.341
16,0,19-May-2018,1,1,7,Sub16_Trial7_0,0,4,4,-140.791557,False,1.341
16,0,19-May-2018,1,1,7,Sub16_Trial7_0,0,5,5,81.935992,False,1.341
16,0,19-May-2018,1,1,7,Sub16_Trial7_0,0,6,6,-117.131619,False,1.341
16,0,19-May-2018,1,1,7,Sub16_Trial7_1,1,0,0,-136.385854,True,1.341
16,0,19-May-2018,1,1,7,Sub16_Trial7_1,1,1,1,42.25138,True,1.341
16,0,19-May-2018,1,1,7,Sub16_Trial7_1,1,2,2,9.64417,True,1.341
16,0,19-May-2018,1,1,7,Sub16_Trial7_1,1,3,3,-64.07739,True,1.341
16,0,19-May-2018,1,1,7,Sub16_Trial7_1,1,4,4,-173.784597,True,1.341
16,0,19-May-2018,1,1,7,Sub16_Trial7_1,1,5,5,-72.6054,True,1.341
16,0,19-May-2018,1,1,7,Sub16_Trial7_1,1,6,6,2.45172,True,1.341
16,0,19-May-2018,1,1,8,Sub16_Trial8_0,0,0,0,27.537502,False,1.362
16,0,19-May-2018,1,1,8,Sub16_Trial8_0,0,1,1,-23.706577,False,1.362
16,0,19-May-2018,1,1,8,Sub16_Trial8_0,0,2,2,-60.754434,False,1.362
16,0,19-May-2018,1,1,8,Sub16_Trial8_0,0,3,3,105.14973,False,1.362
16,0,19-May-2018,1,1,8,Sub16_Trial8_0,0,4,4,-74.560776,False,1.362
16,0,19-May-2018,1,1,8,Sub16_Trial8_0,0,5,5,24.39154,False,1.362
16,0,19-May-2018,1,1,8,Sub16_Trial8_0,0,6,6,-8.18461,False,1.362
16,0,19-May-2018,1,1,8,Sub16_Trial8_1,1,0,0,54.218296,True,1.362
16,0,19-May-2018,1,1,8,Sub16_Trial8_1,1,1,1,190.155247,True,1.362
16,0,19-May-2018,1,1,8,Sub16_Trial8_1,1,2,2,-75.120156,True,1.362
16,0,19-May-2018,1,1,8,Sub16_Trial8_1,1,3,3,141.004773,True,1.362
16,0,19-May-2018,1,1,8,Sub16_Trial8_1,1,4,4,-146.196705,True,1.362
16,0,19-May-2018,1,1,8,Sub16_Trial8_1,1,5,5,41.623248,True,1.362
16,0,19-May-2018,1,1,8,Sub16_Trial8_1,1,6,6,-96.622722,True,1.362
16,0,19-May-2018,1,1,9,Sub16_Trial9_0,0,0,0,-22.577441,True,1.287
16,0,19-May-2018,1,1,9,Sub16_Trial9_0,0,1,1,13.448995,True,1.287
16,0,19-May-2018,1,1,9,Sub16_Trial9_0,0,2,2,161.908366,True,1.287
16,0,19-May-2018,1,1,9,Sub16_Trial9_0,0,3,3,-39.504277,True,1.287
16,0,19-May-2018,1,1,9,Sub16_Trial9_0,0,4,4,-138.463578,True,1.287
16,0,19-May-2018,1,1,9,Sub16_Trial9_0,0,5,5,186.687792,True,1.287
16,0,19-May-2018,1,1,9,Sub16_Trial9_0,0,6,6,137.089149,True,1.287
16,0,19-May-2018,1,1,9,Sub16_Trial9_1,1,0,0,29.644849,False,1.287
16,0,19-May-2018,1,1,9,Sub16_Trial9_1,1,1,1,-77.18337,False,1.287
16,0,19-May-2018,1,1,9,Sub16_Trial9_1,1,2,2,4.850354,False,1.287
16,0,19-May-2018,1,1,9,Sub16_Trial9_1,1,3,3,-134.388205,False,1.287
16,0,19-May-2018,1,1,9,Sub16_Trial9_1,1,4,4,6.333738,False,1.287
16,0,19-May-2018,1,1,9,Sub16_Trial9_1,1,5,5,-51.311236,False,1.287
16,0,19-May-2018,1,1,9,Sub16_Trial9_1,1,6,6,-14.626853,False,1.287
16,0,19-May-2018,1,1,10,Sub16_Trial10_0,0,0,0,-47.353801,False,8.086
16,0,19-May-2018,1,1,10,Sub16_Trial10_0,0,1,1,134.950287,False,8.086
16,0,19-May-2018,1,1,10,Sub16_Trial10_0,0,2,2,34.977817,False,8.086
16,0,19-May-2018,1,1,10,Sub16_Trial10_0,0,3,3,-168.805601,False,8.086
16,0,19-May-2018,1,1,10,Sub16_Trial10_0,0,4,4,16.853538,False,8.086
16,0,19-May-2018,1,1,10,Sub16_Trial10_0,0,5,5,148.063948,False,8.086
16,0,19-May-2018,1,1,10,Sub16_Trial10_0,0,6,6,-49.965713,False,8.086
16,0,19-May-2018,1,1,10,Sub16_Trial10_1,1,0,0,-49.189703,True,8.086
16,0,19-May-2018,1,1,10,Sub16_Trial10_1,1,1,1,7.238198,True,8.086
16,0,19-May-2018,1,1,10,Sub16_Trial10_1,1,2,2,97.854584,True,8.086
16,0,19-May-2018,1,1,10,Sub16_Trial10_1,1,3,3,33.562224,True,8.086
16,0,19-May-2018,1,1,10,Sub16_Trial10_1,1,4,4,187.150243,True,8.086
16,0,19-May-2018,1,1,10,Sub16_Trial10_1,1,5,5,29.048416,True,8.086
16,0,19-May-2018,1,1,10,Sub16_Trial10_1,1,6,6,171.626891,True,8.086
16,0,19-May-2018,1,1,11,Sub16_Trial11_0,0,0,0,52.59402,False,2.808
16,0,19-May-2018,1,1,11,Sub16_Trial11_0,0,1,1,47.811438,False,2.808
16,0,19-May-2018,1,1,11,Sub16_Trial11_0,0,2,2,106.440787,False,2.808
16,0,19-May-2018,1,1,11,Sub16_Trial11_0,0,3,3,-126.220008,False,2.808
16,0,19-May-2018,1,1,11,Sub16_Trial11_0,0,4,4,-30.61001,False,2.808
16,0,19-May-2018,1,1,11,Sub16_Trial11_0,0,5,5,59.467092,False,2.808
16,0,19-May-2018,1,1,11,Sub16_Trial11_0,0,6,6,-6.751879,False,2.808
16,0,19-May-2018,1,1,11,Sub16_Trial11_1,1,0,0,148.573012,True,2.808
16,0,19-May-2018,1,1,11,Sub16_Trial11_1,1,1,1,-67.013359,True,2.808
16,0,19-May-2018,1,1,11,Sub16_Trial11_1,1,2,2,163.049303,True,2.808
16,0,19-May-2018,1,1,11,Sub16_Trial11_1,1,3,3,11.422836,True,2.808
16,0,19-May-2018,1,1,11,Sub16_Trial11_1,1,4,4,54.270364,True,2.808
16,0,19-May-2018,1,1,11,Sub16_Trial11_1,1,5,5,-146.221231,True,2.808
16,0,19-May-2018,1,1,11,Sub16_Trial11_1,1,6,6,60.879495,True,2.808
16,0,19-May-2018,1,1,12,Sub16_Trial12_0,0,0,0,141.082187,True,2.736
16,0,19-May-2018,1,1,12,Sub16_Trial12_0,0,1,1,21.98085,True,2.736
16,0,19-May-2018,1,1,12,Sub16_Trial12_0,0,2,2,-175.915233,True,2.736
16,0,19-May-2018,1,1,12,Sub16_Trial12_0,0,3,3,30.28645,True,2.736
16,0,19-May-2018,1,1,12,Sub16_Trial12_0,0,4,4,-5.493083,True,2.736
16,0,19-May-2018,1,1,12,Sub16_Trial12_0,0,5,5,19.260428,True,2.736
16,0,19-May-2018,1,1,12,Sub16_Trial12_0,0,6,6,-72.260797,True,2.736
16,0,19-May-2018,1,1,12,Sub16_Trial12_1,1,0,0,-39.52653,False,2.736
16,0,19-May-2018,1,1,12,Sub16_Trial12_1,1,1,1,32.31421,False,2.736
16,0,19-May-2018,1,1,12,Sub16_Trial12_1,1,2,2,28.901613,False,2.736
16,0,19-May-2018,1,1,12,Sub16_Trial12_1,1,3,3,167.729974,False,2.736
16,0,19-May-2018,1,1,12,Sub16_Trial12_1,1,4,4,-131.454993,False,2.736
16,0,19-May-2018,1,1,12,Sub16_Trial12_1,1,5,5,-21.79357,False,2.736
16,0,19-May-2018,1,1,12,Sub16_Trial12_1,1,6,6,36.157181,False,2.736
16,0,19-May-2018,1,1,13,Sub16_Trial13_0,0,0,0,-118.03787,False,2.798
16,0,19-May-2018,1,1,13,Sub16_Trial13_0,0,1,1,73.52685,False,2.798
16,0,19-May-2018,1,1,13,Sub16_Trial13_0,0,2,2,-69.188456,False,2.798
16,0,19-May-2018,1,1,13,Sub16_Trial13_0,0,3,3,-162.919499,False,2.798
16,0,19-May-2018,1,1,13,Sub16_Trial13_0,0,4,4,160.028708,False,2.798
16,0,19-May-2018,1,1,13,Sub16_Trial13_0,0,5,5,-2.076903,False,2.798
16,0,19-May-2018,1,1,13,Sub16_Trial13_0,0,6,6,-85.661675,False,2.798
16,0,19-May-2018,1,1,13,Sub16_Trial13_1,1,0,0,17.119183,True,2.798
16,0,19-May-2018,1,1,13,Sub16_Trial13_1,1,1,1,44.1256,True,2.798
16,0,19-May-2018,1,1,13,Sub16_Trial13_1,1,2,2,32.880902,True,2.798
16,0,19-May-2018,1,1,13,Sub16_Trial13_1,1,3,3,-67.049984,True,2.798
16,0,19-May-2018,1,1,13,Sub16_Trial13_1,1,4,4,68.546828,True,2.798
16,0,19-May-2018,1,1,13,Sub16_Trial13_1,1,5,5,131.671738,True,2.798
16,0,19-May-2018,1,1,13,Sub16_Trial13_1,1,6,6,50.202136,True,2.798
16,0,19-May-2018,1,1,14,Sub16_Trial14_0,0,0,0,-43.863647,True,2.114
16,0,19-May-2018,1,1,14,Sub16_Trial14_0,0,1,1,135.023038,True,2.114
16,0,19-May-2018,1,1,14,Sub16_Trial14_0,0,2,2,33.144882,True,2.114
16,0,19-May-2018,1,1,14,Sub16_Trial14_0,0,3,3,62.278096,True,2.114
16,0,19-May-2018,1,1,14,Sub16_Trial14_0,0,4,4,-61.206159,True,2.114
16,0,19-May-2018,1,1,14,Sub16_Trial14_0,0,5,5,17.459345,True,2.114
16,0,19-May-2018,1,1,14,Sub16_Trial14_0,0,6,6,-111.592305,True,2.114
16,0,19-May-2018,1,1,14,Sub16_Trial14_1,1,0,0,-21.092834,False,2.114
16,0,19-May-2018,1,1,14,Sub16_Trial14_1,1,1,1,-103.913084,False,2.114
16,0,19-May-2018,1,1,14,Sub16_Trial14_1,1,2,2,33.757044,False,2.114
16,0,19-May-2018,1,1,14,Sub16_Trial14_1,1,3,3,151.614819,False,2.114
16,0,19-May-2018,1,1,14,Sub16_Trial14_1,1,4,4,-11.407301,False,2.114
16,0,19-May-2018,1,1,14,Sub16_Trial14_1,1,5,5,-25.872281,False,2.114
16,0,19-May-2018,1,1,14,Sub16_Trial14_1,1,6,6,-71.06646,False,2.114
16,0,19-May-2018,1,1,15,Sub16_Trial15_0,0,0,0,87.325426,False,2.534
16,0,19-May-2018,1,1,15,Sub16_Trial15_0,0,1,1,77.185819,False,2.534
16,0,19-May-2018,1,1,15,Sub16_Trial15_0,0,2,2,49.729343,False,2.534
16,0,19-May-2018,1,1,15,Sub16_Trial15_0,0,3,3,83.692096,False,2.534
16,0,19-May-2018,1,1,15,Sub16_Trial15_0,0,4,4,-45.540642,False,2.534
16,0,19-May-2018,1,1,15,Sub16_Trial15_0,0,5,5,-13.543297,False,2.534
16,0,19-May-2018,1,1,15,Sub16_Trial15_0,0,6,6,64.899889,False,2.534
16,0,19-May-2018,1,1,15,Sub16_Trial15_1,1,0,0,41.125607,True,2.534
16,0,19-May-2018,1,1,15,Sub16_Trial15_1,1,1,1,85.110822,True,2.534
16,0,19-May-2018,1,1,15,Sub16_Trial15_1,1,2,2,-123.102766,True,2.534
16,0,19-May-2018,1,1,15,Sub16_Trial15_1,1,3,3,104.857415,True,2.534
16,0,19-May-2018,1,1,15,Sub16_Trial15_1,1,4,4,44.53062,True,2.534
16,0,19-May-2018,1,1,15,Sub16_Trial15_1,1,5,5,40.017457,True,2.534
16,0,19-May-2018,1,1,15,Sub16_Trial15_1,1,6,6,-8.328633,True,2.534
16,0,19-May-2018,1,1,16,Sub16_Trial16_0,0,0,0,-35.13257,True,6.588
16,0,19-May-2018,1,1,16,Sub16_Trial16_0,0,1,1,69.58109,True,6.588
16,0,19-May-2018,1,1,16,Sub16_Trial16_0,0,2,2,43.318724,True,6.588
16,0,19-May-2018,1,1,16,Sub16_Trial16_0,0,3,3,86.200294,True,6.588
16,0,19-May-2018,1,1,16,Sub16_Trial16_0,0,4,4,156.142381,True,6.588
16,0,19-May-2018,1,1,16,Sub16_Trial16_0,0,5,5,-23.435605,True,6.588
16,0,19-May-2018,1,1,16,Sub16_Trial16_0,0,6,6,27.901739,True,6.588
16,0,19-May-2018,1,1,16,Sub16_Trial16_1,1,0,0,15.99621,False,6.588
16,0,19-May-2018,1,1,16,Sub16_Trial16_1,1,1,1,9.888555,False,6.588
16,0,19-May-2018,1,1,16,Sub16_Trial16_1,1,2,2,16.365097,False,6.588
16,0,19-May-2018,1,1,16,Sub16_Trial16_1,1,3,3,-7.61393,False,6.588
16,0,19-May-2018,1,1,16,Sub16_Trial16_1,1,4,4,74.327439,False,6.588
16,0,19-May-2018,1,1,16,Sub16_Trial16_1,1,5,5,86.948328,False,6.588
16,0,19-May-2018,1,1,16,Sub16_Trial16_1,1,6,6,-28.799258,False,6.588
16,0,19-May-2018,1,1,17,Sub16_Trial17_0,0,0,0,13.175378,False,3.951
16,0,19-May-2018,1,1,17,Sub16_Trial17_0,0,1,1,108.296323,False,3.951
16,0,19-May-2018,1,1,17,Sub16_Trial17_0,0,2,2,-137.299702,False,3.951
16,0,19-May-2018,1,1,17,Sub16_Trial17_0,0,3,3,65.416026,False,3.951
16,0,19-May-2018,1,1,17,Sub16_Trial17_0,0,4,4,-27.707298,False,3.951
16,0,19-May-2018,1,1,17,Sub16_Trial17_0,0,5,5,4.700317,False,3.951
16,0,19-May-2018,1,1,17,Sub16_Trial17_0,0,6,6,53.330204,False,3.951
16,0,19-May-2018,1,1,17,Sub16_Trial17_1,1,0,0,24.415459,True,3.951
16,0,19-May-2018,1,1,17,Sub16_Trial17_1,1,1,1,93.162432,True,3.951
16,0,19-May-2018,1,1,17,Sub16_Trial17_1,1,2,2,75.464695,True,3.951
16,0,19-May-2018,1,1,17,Sub16_Trial17_1,1,3,3,-101.903239,True,3.951
16,0,19-May-2018,1,1,17,Sub16_Trial17_1,1,4,4,-100.046688,True,3.951
16,0,19-May-2018,1,1,17,Sub16_Trial17_1,1,5,5,-26.108229,True,3.951
16,0,19-May-2018,1,1,17,Sub16_Trial17_1,1,6,6,-31.654621,True,3.951
16,0,19-May-2018,1,1,18,Sub16_Trial18_0,0,0,0,107.125983,False,1.418
16,0,19-May-2018,1,1,18,Sub16_Trial18_0,0,1,1,-50.599321,False,1.418
16,0,19-May-2018,1,1,18,Sub16_Trial18_0,0,2,2,-91.109643,False,1.418
16,0,19-May-2018,1,1,18,Sub16_Trial18_0,0,3,3,190.754144,False,1.418
16,0,19-May-2018,1,1,18,Sub16_Trial18_0,0,4,4,-177.130078,False,1.418
16,0,19-May-2018,1,1,18,Sub16_Trial18_0,0,5,5,-111.144787,False,1.418
16,0,19-May-2018,1,1,18,Sub16_Trial18_0,0,6,6,92.835857,False,1.418
16,0,19-May-2018,1,1,18,Sub16_Trial18_1,1,0,0,61.93409,True,1.418
16,0,19-May-2018,1,1,18,Sub16_Trial18_1,1,1,1,86.0762,True,1.418
16,0,19-May-2018,1,1,18,Sub16_Trial18_1,1,2,2,-129.578518,True,1.418
16,0,19-May-2018,1,1,18,Sub16_Trial18_1,1,3,3,168.024286,True,1.418
16,0,19-May-2018,1,1,18,Sub16_Trial18_1,1,4,4,-76.799009,True,1.418
16,0,19-May-2018,1,1,18,Sub16_Trial18_1,1,5,5,55.519798,True,1.418
16,0,19-May-2018,1,1,18,Sub16_Trial18_1,1,6,6,134.414613,True,1.418
16,0,19-May-2018,1,1,19,Sub16_Trial19_0,0,0,0,-20.050406,False,0.913
16,0,19-May-2018,1,1,19,Sub16_Trial19_0,0,1,1,-163.134632,False,0.913
16,0,19-May-2018,1,1,19,Sub16_Trial19_0,0,2,2,-100.91549,False,0.913
16,0,19-May-2018,1,1,19,Sub16_Trial19_0,0,3,3,115.823059,False,0.913
16,0,19-May-2018,1,1,19,Sub16_Trial19_0,0,4,4,-76.645933,False,0.913
16,0,19-May-2018,1,1,19,Sub16_Trial19_0,0,5,5,0.392793,False,0.913
16,0,19-May-2018,1,1,19,Sub16_Trial19_0,0,6,6,-61.082124,False,0.913
16,0,19-May-2018,1,1,19,Sub16_Trial19_1,1,0,0,63.754421,True,0.913
16,0,19-May-2018,1,1,19,Sub16_Trial19_1,1,1,1,-140.971472,True,0.913
16,0,19-May-2018,1,1,19,Sub16_Trial19_1,1,2,2,-114.687609,True,0.913
16,0,19-May-2018,1,1,19,Sub16_Trial19_1,1,3,3,-124.390927,True,0.913
16,0,19-May-2018,1,1,19,Sub16_Trial19_1,1,4,4,-99.730647,True,0.913
16,0,19-May-2018,1,1,19,Sub16_Trial19_1,1,5,5,48.363001,True,0.913
16,0,19-May-2018,1,1,19,Sub16_Trial19_1,1,6,6,-24.551129,True,0.913
16,0,19-May-2018,1,1,20,Sub16_Trial20_0,0,0,0,17.53097,False,1.798
16,0,19-May-2018,1,1,20,Sub16_Trial20_0,0,1,1,-171.651101,False,1.798
16,0,19-May-2018,1,1,20,Sub16_Trial20_0,0,2,2,76.028618,False,1.798
16,0,19-May-2018,1,1,20,Sub16_Trial20_0,0,3,3,16.954851,False,1.798
16,0,19-May-2018,1,1,20,Sub16_Trial20_0,0,4,4,-139.157275,False,1.798
16,0,19-May-2018,1,1,20,Sub16_Trial20_0,0,5,5,58.797248,False,1.798
16,0,19-May-2018,1,1,20,Sub16_Trial20_0,0,6,6,-81.788158,False,1.798
16,0,19-May-2018,1,1,20,Sub16_Trial20_1,1,0,0,-126.39657,True,1.798
16,0,19-May-2018,1,1,20,Sub16_Trial20_1,1,1,1,18.557744,True,1.798
16,0,19-May-2018,1,1,20,Sub16_Trial20_1,1,2,2,37.055191,True,1.798
16,0,19-May-2018,1,1,20,Sub16_Trial20_1,1,3,3,-146.7291,True,1.798
16,0,19-May-2018,1,1,20,Sub16_Trial20_1,1,4,4,-68.479653,True,1.798
16,0,19-May-2018,1,1,20,Sub16_Trial20_1,1,5,5,64.209753,True,1.798
16,0,19-May-2018,1,1,20,Sub16_Trial20_1,1,6,6,-45.579607,True,1.798
16,0,19-May-2018,1,1,21,Sub16_Trial21_0,0,0,0,86.872748,True,5.917
16,0,19-May-2018,1,1,21,Sub16_Trial21_0,0,1,1,27.261423,True,5.917
16,0,19-May-2018,1,1,21,Sub16_Trial21_0,0,2,2,29.561481,True,5.917
16,0,19-May-2018,1,1,21,Sub16_Trial21_0,0,3,3,100.961991,True,5.917
16,0,19-May-2018,1,1,21,Sub16_Trial21_0,0,4,4,-30.992053,True,5.917
16,0,19-May-2018,1,1,21,Sub16_Trial21_0,0,5,5,-45.613468,True,5.917
16,0,19-May-2018,1,1,21,Sub16_Trial21_0,0,6,6,11.899278,True,5.917
16,0,19-May-2018,1,1,21,Sub16_Trial21_1,1,0,0,37.052186,False,5.917
16,0,19-May-2018,1,1,21,Sub16_Trial21_1,1,1,1,149.372417,False,5.917
16,0,19-May-2018,1,1,21,Sub16_Trial21_1,1,2,2,-89.109189,False,5.917
16,0,19-May-2018,1,1,21,Sub16_Trial21_1,1,3,3,-0.144867,False,5.917
16,0,19-May-2018,1,1,21,Sub16_Trial21_1,1,4,4,-54.922275,False,5.917
16,0,19-May-2018,1,1,21,Sub16_Trial21_1,1,5,5,-91.598794,False,5.917
16,0,19-May-2018,1,1,21,Sub16_Trial21_1,1,6,6,-121.598522,False,5.917
16,0,19-May-2018,1,1,22,Sub16_Trial22_0,0,0,0,36.805482,True,1.441
16,0,19-May-2018,1,1,22,Sub16_Trial22_0,0,1,1,27.282541,True,1.441
16,0,19-May-2018,1,1,22,Sub16_Trial22_0,0,2,2,38.011828,True,1.441
16,0,19-May-2018,1,1,22,Sub16_Trial22_0,0,3,3,118.928102,True,1.441
16,0,19-May-2018,1,1,22,Sub16_Trial22_0,0,4,4,163.08411,True,1.441
16,0,19-May-2018,1,1,22,Sub16_Trial22_0,0,5,5,-53.75511,True,1.441
16,0,19-May-2018,1,1,22,Sub16_Trial22_0,0,6,6,47.259455,True,1.441
16,0,19-May-2018,1,1,22,Sub16_Trial22_1,1,0,0,2.096766,False,1.441
16,0,19-May-2018,1,1,22,Sub16_Trial22_1,1,1,1,44.588264,False,1.441
16,0,19-May-2018,1,1,22,Sub16_Trial22_1,1,2,2,65.248878,False,1.441
16,0,19-May-2018,1,1,22,Sub16_Trial22_1,1,3,3,-63.382896,False,1.441
16,0,19-May-2018,1,1,22,Sub16_Trial22_1,1,4,4,-137.388671,False,1.441
16,0,19-May-2018,1,1,22,Sub16_Trial22_1,1,5,5,31.924173,False,1.441
16,0,19-May-2018,1,1,22,Sub16_Trial22_1,1,6,6,71.591981,False,1.441
16,0,19-May-2018,1,1,23,Sub16_Trial23_0,0,0,0,67.742019,False,1.364
16,0,19-May-2018,1,1,23,Sub16_Trial23_0,0,1,1,50.018363,False,1.364
16,0,19-May-2018,1,1,23,Sub16_Trial23_0,0,2,2,-188.533833,False,1.364
16,0,19-May-2018,1,1,23,Sub16_Trial23_0,0,3,3,-35.011046,False,1.364
16,0,19-May-2018,1,1,23,Sub16_Trial23_0,0,4,4,77.659774,False,1.364
16,0,19-May-2018,1,1,23,Sub16_Trial23_0,0,5,5,106.089931,False,1.364
16,0,19-May-2018,1,1,23,Sub16_Trial23_0,0,6,6,-53.842598,False,1.364
16,0,19-May-2018,1,1,23,Sub16_Trial23_1,1,0,0,-87.100938,True,1.364
16,0,19-May-2018,1,1,23,Sub16_Trial23_1,1,1,1,0.491527,True,1.364
16,0,19-May-2018,1,1,23,Sub16_Trial23_1,1,2,2,-47.323108,True,1.364
16,0,19-May-2018,1,1,23,Sub16_Trial23_1,1,3,3,-48.695589,True,1.364
16,0,19-May-2018,1,1,23,Sub16_Trial23_1,1,4,4,90.185272,True,1.364
16,0,19-May-2018,1,1,23,Sub16_Trial23_1,1,5,5,76.914015,True,1.364
16,0,19-May-2018,1,1,23,Sub16_Trial23_1,1,6,6,-13.86103,True,1.364
16,0,19-May-2018,1,1,24,Sub16_Trial24_0,0,0,0,-103.639017,False,1.454
16,0,19-May-2018,1,1,24,Sub16_Trial24_0,0,1,1,54.553371,False,1.454
16,0,19-May-2018,1,1,24,Sub16_Trial24_0,0,2,2,-138.059564,False,1.454
16,0,19-May-2018,1,1,24,Sub16_Trial24_0,0,3,3,-17.121517,False,1.454
16,0,19-May-2018,1,1,24,Sub16_Trial24_0,0,4,4,-32.877445,False,1.454
16,0,19-May-2018,1,1,24,Sub16_Trial24_0,0,5,5,117.739958,False,1.454
16,0,19-May-2018,1,1,24,Sub16_Trial24_0,0,6,6,-126.543019,False,1.454
16,0,19-May-2018,1,1,24,Sub16_Trial24_1,1,0,0,-45.207217,True,1.454
16,0,19-May-2018,1,1,24,Sub16_Trial24_1,1,1,1,-6.048426,True,1.454
16,0,19-May-2018,1,1,24,Sub16_Trial24_1,1,2,2,63.191133,True,1.454
16,0,19-May-2018,1,1,24,Sub16_Trial24_1,1,3,3,47.751282,True,1.454
16,0,19-May-2018,1,1,24,Sub16_Trial24_1,1,4,4,68.588114,True,1.454
16,0,19-May-2018,1,1,24,Sub16_Trial24_1,1,5,5,150.790243,True,1.454
16,0,19-May-2018,1,1,24,Sub16_Trial24_1,1,6,6,37.906786,True,1.454
16,0,19-May-2018,1,1,25,Sub16_Trial25_0,0,0,0,-53.52818,False,1.721
16,0,19-May-2018,1,1,25,Sub16_Trial25_0,0,1,1,-18.074156,False,1.721
16,0,19-May-2018,1,1,25,Sub16_Trial25_0,0,2,2,37.28414,False,1.721
16,0,19-May-2018,1,1,25,Sub16_Trial25_0,0,3,3,-133.795236,False,1.721
16,0,19-May-2018,1,1,25,Sub16_Trial25_0,0,4,4,-49.124646,False,1.721
16,0,19-May-2018,1,1,25,Sub16_Trial25_0,0,5,5,74.428079,False,1.721
16,0,19-May-2018,1,1,25,Sub16_Trial25_0,0,6,6,-95.749613,False,1.721
16,0,19-May-2018,1,1,25,Sub16_Trial25_1,1,0,0,105.960303,True,1.721
16,0,19-May-2018,1,1,25,Sub16_Trial25_1,1,1,1,-49.66965,True,1.721
16,0,19-May-2018,1,1,25,Sub16_Trial25_1,1,2,2,0.856231,True,1.721
16,0,19-May-2018,1,1,25,Sub16_Trial25_1,1,3,3,-63.076999,True,1.721
16,0,19-May-2018,1,1,25,Sub16_Trial25_1,1,4,4,-81.857379,True,1.721
16,0,19-May-2018,1,1,25,Sub16_Trial25_1,1,5,5,-8.48391,True,1.721
16,0,19-May-2018,1,1,25,Sub16_Trial25_1,1,6,6,105.530598,True,1.721
16,0,19-May-2018,1,1,26,Sub16_Trial26_0,0,0,0,79.813914,False,1.136
16,0,19-May-2018,1,1,26,Sub16_Trial26_0,0,1,1,-3.138539,False,1.136
16,0,19-May-2018,1,1,26,Sub16_Trial26_0,0,2,2,-141.338048,False,1.136
16,0,19-May-2018,1,1,26,Sub16_Trial26_0,0,3,3,182.900086,False,1.136
16,0,19-May-2018,1,1,26,Sub16_Trial26_0,0,4,4,-16.426287,False,1.136
16,0,19-May-2018,1,1,26,Sub16_Trial26_0,0,5,5,-65.624631,False,1.136
16,0,19-May-2018,1,1,26,Sub16_Trial26_0,0,6,6,-24.999766,False,1.136
16,0,19-May-2018,1,1,26,Sub16_Trial26_1,1,0,0,-73.414832,True,1.136
16,0,19-May-2018,1,1,26,Sub16_Trial26_1,1,1,1,37.376943,True,1.136
16,0,19-May-2018,1,1,26,Sub16_Trial26_1,1,2,2,155.554533,True,1.136
16,0,19-May-2018,1,1,26,Sub16_Trial26_1,1,3,3,-0.743546,True,1.136
16,0,19-May-2018,1,1,26,Sub16_Trial26_1,1,4,4,38.35546,True,1.136
16,0,19-May-2018,1,1,26,Sub16_Trial26_1,1,5,5,12.016737,True,1.136
16,0,19-May-2018,1,1,26,Sub16_Trial26_1,1,6,6,23.244787,True,1.136
16,0,19-May-2018,1,1,27,Sub16_Trial27_0,0,0,0,114.869626,True,1.381
16,0,19-May-2018,1,1,27,Sub16_Trial27_0,0,1,1,24.579863,True,1.381
16,0,19-May-2018,1,1,27,Sub16_Trial27_0,0,2,2,87.247025,True,1.381
16,0,19-May-2018,1,1,27,Sub16_Trial27_0,0,3,3,-22.063358,True,1.381
16,0,19-May-2018,1,1,27,Sub16_Trial27_0,0,4,4,-186.465132,True,1.381
16,0,19-May-2018,1,1,27,Sub16_Trial27_0,0,5,5,-74.729378,True,1.381
16,0,19-May-2018,1,1,27,Sub16_Trial27_0,0,6,6,70.177393,True,1.381
16,0,19-May-2018,1,1,27,Sub16_Trial27_1,1,0,0,-168.356032,False,1.381
16,0,19-May-2018,1,1,27,Sub16_Trial27_1,1,1,1,48.00011,False,1.381
16,0,19-May-2018,1,1,27,Sub16_Trial27_1,1,2,2,112.709943,False,1.381
16,0,19-May-2018,1,1,27,Sub16_Trial27_1,1,3,3,23.3838,False,1.381
16,0,19-May-2018,1,1,27,Sub16_Trial27_1,1,4,4,-189.435301,False,1.381
16,0,19-May-2018,1,1,27,Sub16_Trial27_1,1,5,5,-100.269117,False,1.381
16,0,19-May-2018,1,1,27,Sub16_Trial27_1,1,6,6,-100.400515,False,1.381
16,0,19-May-2018,1,1,28,Sub16_Trial28_0,0,0,0,-3.418442,False,3.39
16,0,19-May-2018,1,1,28,Sub16_Trial28_0,0,1,1,148.089341,False,3.39
16,0,19-May-2018,1,1,28,Sub16_Trial28_0,0,2,2,-178.069173,False,3.39
16,0,19-May-2018,1,1,28,Sub16_Trial28_0,0,3,3,186.46498,False,3.39
16,0,19-May-2018,1,1,28,Sub16_Trial28_0,0,4,4,-156.724923,False,3.39
16,0,19-May-2018,1,1,28,Sub16_Trial28_0,0,5,5,-7.525427,False,3.39
16,0,19-May-2018,1,1,28,Sub16_Trial28_0,0,6,6,-40.533638,False,3.39
16,0,19-May-2018,1,1,28,Sub16_Trial28_1,1,0,0,-28.652631,True,3.39
16,0,19-May-2018,1,1,28,Sub16_Trial28_1,1,1,1,-47.073165,True,3.39
16,0,19-May-2018,1,1,28,Sub16_Trial28_1,1,2,2,-29.838878,True,3.39
16,0,19-May-2018,1,1,28,Sub16_Trial28_1,1,3,3,-64.975745,True,3.39
16,0,19-May-2018,1,1,28,Sub16_Trial28_1,1,4,4,41.439451,True,3.39
16,0,19-May-2018,1,1,28,Sub16_Trial28_1,1,5,5,14.38367,True,3.39
16,0,19-May-2018,1,1,28,Sub16_Trial28_1,1,6,6,-63.152044,True,3.39
16,0,19-May-2018,1,1,29,Sub16_Trial29_0,0,0,0,135.331935,False,1.584
16,0,19-May-2018,1,1,29,Sub16_Trial29_0,0,1,1,56.663346,False,1.584
16,0,19-May-2018,1,1,29,Sub16_Trial29_0,0,2,2,-100.577186,False,1.584
16,0,19-May-2018,1,1,29,Sub16_Trial29_0,0,3,3,81.891365,False,1.584
16,0,19-May-2018,1,1,29,Sub16_Trial29_0,0,4,4,-27.075603,False,1.584
16,0,19-May-2018,1,1,29,Sub16_Trial29_0,0,5,5,121.431858,False,1.584
16,0,19-May-2018,1,1,29,Sub16_Trial29_0,0,6,6,-148.98565,False,1.584
16,0,19-May-2018,1,1,29,Sub16_Trial29_1,1,0,0,52.768771,True,1.584
16,0,19-May-2018,1,1,29,Sub16_Trial29_1,1,1,1,98.489823,True,1.584
16,0,19-May-2018,1,1,29,Sub16_Trial29_1,1,2,2,62.978942,True,1.584
16,0,19-May-2018,1,1,29,Sub16_Trial29_1,1,3,3,-34.48351,True,1.584
16,0,19-May-2018,1,1,29,Sub16_Trial29_1,1,4,4,-76.169326,True,1.584
16,0,19-May-2018,1,1,29,Sub16_Trial29_1,1,5,5,34.381873,True,1.584
16,0,19-May-2018,1,1,29,Sub16_Trial29_1,1,6,6,-109.734525,True,1.584
16,0,19-May-2018,1,1,30,Sub16_Trial30_0,0,0,0,-69.686503,False,2.436
16,0,19-May-2018,1,1,30,Sub16_Trial30_0,0,1,1,24.053154,False,2.436
16,0,19-May-2018,1,1,30,Sub16_Trial30_0,0,2,2,-148.307239,False,2.436
16,0,19-May-2018,1,1,30,Sub16_Trial30_0,0,3,3,36.824336,False,2.436
16,0,19-May-2018,1,1,30,Sub16_Trial30_0,0,4,4,-39.087427,False,2.436
16,0,19-May-2018,1,1,30,Sub16_Trial30_0,0,5,5,92.161469,False,2.436
16,0,19-May-2018,1,1,30,Sub16_Trial30_0,0,6,6,-129.469962,False,2.436
16,0,19-May-2018,1,1,30,Sub16_Trial30_1,1,0,0,-19.512069,True,2.436
16,0,19-May-2018,1,1,30,Sub16_Trial30_1,1,1,1,168.073788,True,2.436
16,0,19-May-2018,1,1,30,Sub16_Trial30_1,1,2,2,11.024427,True,2.436
16,0,19-May-2018,1,1,30,Sub16_Trial30_1,1,3,3,53.376357,True,2.436
16,0,19-May-2018,1,1,30,Sub16_Trial30_1,1,4,4,21.931697,True,2.436
16,0,19-May-2018,1,1,30,Sub16_Trial30_1,1,5,5,62.218935,True,2.436
16,0,19-May-2018,1,1,30,Sub16_Trial30_1,1,6,6,-105.765812,True,2.436
16,0,19-May-2018,1,1,31,Sub16_Trial31_0,0,0,0,-85.247491,False,2.223
16,0,19-May-2018,1,1,31,Sub16_Trial31_0,0,1,1,-40.803199,False,2.223
16,0,19-May-2018,1,1,31,Sub16_Trial31_0,0,2,2,47.154171,False,2.223
16,0,19-May-2018,1,1,31,Sub16_Trial31_0,0,3,3,70.519062,False,2.223
16,0,19-May-2018,1,1,31,Sub16_Trial31_0,0,4,4,-82.918809,False,2.223
16,0,19-May-2018,1,1,31,Sub16_Trial31_0,0,5,5,53.760073,False,2.223
16,0,19-May-2018,1,1,31,Sub16_Trial31_0,0,6,6,-131.823136,False,2.223
16,0,19-May-2018,1,1,31,Sub16_Trial31_1,1,0,0,12.285139,True,2.223
16,0,19-May-2018,1,1,31,Sub16_Trial31_1,1,1,1,-18.06501,True,2.223
16,0,19-May-2018,1,1,31,Sub16_Trial31_1,1,2,2,100.540969,True,2.223
16,0,19-May-2018,1,1,31,Sub16_Trial31_1,1,3,3,50.151279,True,2.223
16,0,19-May-2018,1,1,31,Sub16_Trial31_1,1,4,4,83.68894,True,2.223
16,0,19-May-2018,1,1,31,Sub16_Trial31_1,1,5,5,91.323248,True,2.223
16,0,19-May-2018,1,1,31,Sub16_Trial31_1,1,6,6,64.09041,True,2.223
16,0,19-May-2018,1,1,32,Sub16_Trial32_0,0,0,0,-167.70887,False,2.255
16,0,19-May-2018,1,1,32,Sub16_Trial32_0,0,1,1,26.471482,False,2.255
16,0,19-May-2018,1,1,32,Sub16_Trial32_0,0,2,2,-22.783679,False,2.255
16,0,19-May-2018,1,1,32,Sub16_Trial32_0,0,3,3,35.756114,False,2.255
16,0,19-May-2018,1,1,32,Sub16_Trial32_0,0,4,4,-154.019604,False,2.255
16,0,19-May-2018,1,1,32,Sub16_Trial32_0,0,5,5,76.509785,False,2.255
16,0,19-May-2018,1,1,32,Sub16_Trial32_0,0,6,6,-139.184638,False,2.255
16,0,19-May-2018,1,1,32,Sub16_Trial32_1,1,0,0,-168.639508,True,2.255
16,0,19-May-2018,1,1,32,Sub16_Trial32_1,1,1,1,-17.646294,True,2.255
16,0,19-May-2018,1,1,32,Sub16_Trial32_1,1,2,2,-71.949413,True,2.255
16,0,19-May-2018,1,1,32,Sub16_Trial32_1,1,3,3,78.997732,True,2.255
16,0,19-May-2018,1,1,32,Sub16_Trial32_1,1,4,4,81.583446,True,2.255
16,0,19-May-2018,1,1,32,Sub16_Trial32_1,1,5,5,145.196866,True,2.255
16,0,19-May-2018,1,1,32,Sub16_Trial32_1,1,6,6,111.291643,True,2.255
16,0,19-May-2018,1,1,33,Sub16_Trial33_0,0,0,0,-58.204939,False,1.296
16,0,19-May-2018,1,1,33,Sub16_Trial33_0,0,1,1,67.637628,False,1.296
16,0,19-May-2018,1,1,33,Sub16_Trial33_0,0,2,2,9.511249,False,1.296
16,0,19-May-2018,1,1,33,Sub16_Trial33_0,0,3,3,-107.525953,False,1.296
16,0,19-May-2018,1,1,33,Sub16_Trial33_0,0,4,4,12.455878,False,1.296
16,0,19-May-2018,1,1,33,Sub16_Trial33_0,0,5,5,-55.216494,False,1.296
16,0,19-May-2018,1,1,33,Sub16_Trial33_0,0,6,6,-2.867493,False,1.296
16,0,19-May-2018,1,1,33,Sub16_Trial33_1,1,0,0,35.918644,True,1.296
16,0,19-May-2018,1,1,33,Sub16_Trial33_1,1,1,1,80.590023,True,1.296
16,0,19-May-2018,1,1,33,Sub16_Trial33_1,1,2,2,-18.731697,True,1.296
16,0,19-May-2018,1,1,33,Sub16_Trial33_1,1,3,3,-19.101022,True,1.296
16,0,19-May-2018,1,1,33,Sub16_Trial33_1,1,4,4,95.074914,True,1.296
16,0,19-May-2018,1,1,33,Sub16_Trial33_1,1,5,5,103.709186,True,1.296
16,0,19-May-2018,1,1,33,Sub16_Trial33_1,1,6,6,-15.474427,True,1.296
16,0,19-May-2018,1,1,34,Sub16_Trial34_0,0,0,0,84.963217,True,1.757
16,0,19-May-2018,1,1,34,Sub16_Trial34_0,0,1,1,47.501563,True,1.757
16,0,19-May-2018,1,1,34,Sub16_Trial34_0,0,2,2,87.274523,True,1.757
16,0,19-May-2018,1,1,34,Sub16_Trial34_0,0,3,3,-94.883285,True,1.757
16,0,19-May-2018,1,1,34,Sub16_Trial34_0,0,4,4,-123.736266,True,1.757
16,0,19-May-2018,1,1,34,Sub16_Trial34_0,0,5,5,-101.282869,True,1.757
16,0,19-May-2018,1,1,34,Sub16_Trial34_0,0,6,6,25.215169,True,1.757
16,0,19-May-2018,1,1,34,Sub16_Trial34_1,1,0,0,-82.817897,False,1.757
16,0,19-May-2018,1,1,34,Sub16_Trial34_1,1,1,1,-95.049613,False,1.757
16,0,19-May-2018,1,1,34,Sub16_Trial34_1,1,2,2,119.987848,False,1.757
16,0,19-May-2018,1,1,34,Sub16_Trial34_1,1,3,3,20.437187,False,1.757
16,0,19-May-2018,1,1,34,Sub16_Trial34_1,1,4,4,39.951979,False,1.757
16,0,19-May-2018,1,1,34,Sub16_Trial34_1,1,5,5,-52.465896,False,1.757
16,0,19-May-2018,1,1,34,Sub16_Trial34_1,1,6,6,2.954027,False,1.757
16,0,19-May-2018,1,1,35,Sub16_Trial35_0,0,0,0,75.905232,True,3.649
16,0,19-May-2018,1,1,35,Sub16_Trial35_0,0,1,1,197.275088,True,3.649
16,0,19-May-2018,1,1,35,Sub16_Trial35_0,0,2,2,172.116286,True,3.649
16,0,19-May-2018,1,1,35,Sub16_Trial35_0,0,3,3,-3.753141,True,3.649
16,0,19-May-2018,1,1,35,Sub16_Trial35_0,0,4,4,-105.35675,True,3.649
16,0,19-May-2018,1,1,35,Sub16_Trial35_0,0,5,5,9.766235,True,3.649
16,0,19-May-2018,1,1,35,Sub16_Trial35_0,0,6,6,61.106326,True,3.649
16,0,19-May-2018,1,1,35,Sub16_Trial35_1,1,0,0,61.060642,False,3.649
16,0,19-May-2018,1,1,35,Sub16_Trial35_1,1,1,1,-51.715868,False,3.649
16,0,19-May-2018,1,1,35,Sub16_Trial35_1,1,2,2,127.757042,False,3.649
16,0,19-May-2018,1,1,35,Sub16_Trial35_1,1,3,3,-79.953878,False,3.649
16,0,19-May-2018,1,1,35,Sub16_Trial35_1,1,4,4,153.637893,False,3.649
16,0,19-May-2018,1,1,35,Sub16_Trial35_1,1,5,5,-85.562492,False,3.649
16,0,19-May-2018,1,1,35,Sub16_Trial35_1,1,6,6,-12.266743,False,3.649
16,0,19-May-2018,1,1,36,Sub16_Trial36_0,0,0,0,-73.590094,False,1.631
16,0,19-May-2018,1,1,36,Sub16_Trial36_0,0,1,1,-170.821787,False,1.631
16,0,19-May-2018,1,1,36,Sub16_Trial36_0,0,2,2,-9.568429,False,1.631
16,0,19-May-2018,1,1,36,Sub16_Trial36_0,0,3,3,58.308771,False,1.631
16,0,19-May-2018,1,1,36,Sub16_Trial36_0,0,4,4,-30.622359,False,1.631
16,0,19-May-2018,1,1,36,Sub16_Trial36_0,0,5,5,50.619737,False,1.631
16,0,19-May-2018,1,1,36,Sub16_Trial36_0,0,6,6,17.568313,False,1.631
16,0,19-May-2018,1,1,36,Sub16_Trial36_1,1,0,0,32.482186,True,1.631
16,0,19-May-2018,1,1,36,Sub16_Trial36_1,1,1,1,-31.168713,True,1.631
16,0,19-May-2018,1,1,36,Sub16_Trial36_1,1,2,2,14.386714,True,1.631
16,0,19-May-2018,1,1,36,Sub16_Trial36_1,1,3,3,-70.438375,True,1.631
16,0,19-May-2018,1,1,36,Sub16_Trial36_1,1,4,4,-189.639601,True,1.631
16,0,19-May-2018,1,1,36,Sub16_Trial36_1,1,5,5,65.417822,True,1.631
16,0,19-May-2018,1,1,36,Sub16_Trial36_1,1,6,6,88.734985,True,1.631
16,0,19-May-2018,1,1,37,Sub16_Trial37_0,0,0,0,-23.696714,False,1.291
16,0,19-May-2018,1,1,37,Sub16_Trial37_0,0,1,1,-98.173323,False,1.291
16,0,19-May-2018,1,1,37,Sub16_Trial37_0,0,2,2,-90.557646,False,1.291
16,0,19-May-2018,1,1,37,Sub16_Trial37_0,0,3,3,-20.223527,False,1.291
16,0,19-May-2018,1,1,37,Sub16_Trial37_0,0,4,4,57.547987,False,1.291
16,0,19-May-2018,1,1,37,Sub16_Trial37_0,0,5,5,-74.159227,False,1.291
16,0,19-May-2018,1,1,37,Sub16_Trial37_0,0,6,6,127.450588,False,1.291
16,0,19-May-2018,1,1,37,Sub16_Trial37_1,1,0,0,-101.494928,True,1.291
16,0,19-May-2018,1,1,37,Sub16_Trial37_1,1,1,1,127.514638,True,1.291
16,0,19-May-2018,1,1,37,Sub16_Trial37_1,1,2,2,-21.397853,True,1.291
16,0,19-May-2018,1,1,37,Sub16_Trial37_1,1,3,3,54.361023,True,1.291
16,0,19-May-2018,1,1,37,Sub16_Trial37_1,1,4,4,-50.511689,True,1.291
16,0,19-May-2018,1,1,37,Sub16_Trial37_1,1,5,5,46.256257,True,1.291
16,0,19-May-2018,1,1,37,Sub16_Trial37_1,1,6,6,-53.531315,True,1.291
16,0,19-May-2018,1,1,38,Sub16_Trial38_0,0,0,0,184.902079,False,4.407
16,0,19-May-2018,1,1,38,Sub16_Trial38_0,0,1,1,84.895652,False,4.407
16,0,19-May-2018,1,1,38,Sub16_Trial38_0,0,2,2,1.745952,False,4.407
16,0,19-May-2018,1,1,38,Sub16_Trial38_0,0,3,3,-5.569066,False,4.407
16,0,19-May-2018,1,1,38,Sub16_Trial38_0,0,4,4,121.787999,False,4.407
16,0,19-May-2018,1,1,38,Sub16_Trial38_0,0,5,5,-0.214038,False,4.407
16,0,19-May-2018,1,1,38,Sub16_Trial38_0,0,6,6,30.059743,False,4.407
16,0,19-May-2018,1,1,38,Sub16_Trial38_1,1,0,0,74.407615,True,4.407
16,0,19-May-2018,1,1,38,Sub16_Trial38_1,1,1,1,-80.103068,True,4.407
16,0,19-May-2018,1,1,38,Sub16_Trial38_1,1,2,2,-26.639579,True,4.407
16,0,19-May-2018,1,1,38,Sub16_Trial38_1,1,3,3,-31.586191,True,4.407
16,0,19-May-2018,1,1,38,Sub16_Trial38_1,1,4,4,-45.396709,True,4.407
16,0,19-May-2018,1,1,38,Sub16_Trial38_1,1,5,5,37.002041,True,4.407
16,0,19-May-2018,1,1,38,Sub16_Trial38_1,1,6,6,-167.33343,True,4.407
16,0,19-May-2018,1,1,39,Sub16_Trial39_0,0,0,0,68.215998,True,2.36
16,0,19-May-2018,1,1,39,Sub16_Trial39_0,0,1,1,-64.333097,True,2.36
16,0,19-May-2018,1,1,39,Sub16_Trial39_0,0,2,2,-132.96642,True,2.36
16,0,19-May-2018,1,1,39,Sub16_Trial39_0,0,3,3,104.846458,True,2.36
16,0,19-May-2018,1,1,39,Sub16_Trial39_0,0,4,4,-156.630817,True,2.36
16,0,19-May-2018,1,1,39,Sub16_Trial39_0,0,5,5,22.156346,True,2.36
16,0,19-May-2018,1,1,39,Sub16_Trial39_0,0,6,6,-74.623443,True,2.36
16,0,19-May-2018,1,1,39,Sub16_Trial39_1,1,0,0,64.033836,False,2.36
16,0,19-May-2018,1,1,39,Sub16_Trial39_1,1,1,1,-96.314341,False,2.36
16,0,19-May-2018,1,1,39,Sub16_Trial39_1,1,2,2,-103.425863,False,2.36
16,0,19-May-2018,1,1,39,Sub16_Trial39_1,1,3,3,-84.700855,False,2.36
16,0,19-May-2018,1,1,39,Sub16_Trial39_1,1,4,4,-10.538472,False,2.36
16,0,19-May-2018,1,1,39,Sub16_Trial39_1,1,5,5,134.326,False,2.36
16,0,19-May-2018,1,1,39,Sub16_Trial39_1,1,6,6,-65.093453,False,2.36
16,0,19-May-2018,1,1,40,Sub16_Trial40_0,0,0,0,-94.083088,True,1.366
16,0,19-May-2018,1,1,40,Sub16_Trial40_0,0,1,1,-41.928051,True,1.366
16,0,19-May-2018,1,1,40,Sub16_Trial40_0,0,2,2,-144.634927,True,1.366
16,0,19-May-2018,1,1,40,Sub16_Trial40_0,0,3,3,-115.163096,True,1.366
16,0,19-May-2018,1,1,40,Sub16_Trial40_0,0,4,4,100.256617,True,1.366
16,0,19-May-2018,1,1,40,Sub16_Trial40_0,0,5,5,-116.678199,True,1.366
16,0,19-May-2018,1,1,40,Sub16_Trial40_0,0,6,6,98.900231,True,1.366
16,0,19-May-2018,1,1,40,Sub16_Trial40_1,1,0,0,34.115991,False,1.366
16,0,19-May-2018,1,1,40,Sub16_Trial40_1,1,1,1,51.083561,False,1.366
16,0,19-May-2018,1,1,40,Sub16_Trial40_1,1,2,2,-67.474348,False,1.366
16,0,19-May-2018,1,1,40,Sub16_Trial40_1,1,3,3,-74.70678,False,1.366
16,0,19-May-2018,1,1,40,Sub16_Trial40_1,1,4,4,-55.484235,False,1.366
16,0,19-May-2018,1,1,40,Sub16_Trial40_1,1,5,5,-30.711389,False,1.366
16,0,19-May-2018,1,1,40,Sub16_Trial40_1,1,6,6,-84.341481,False,1.366
16,0,19-May-2018,1,1,41,Sub16_Trial41_0,0,0,0,-46.879689,True,0.985
16,0,19-May-2018,1,1,41,Sub16_Trial41_0,0,1,1,55.530507,True,0.985
16,0,19-May-2018,1,1,41,Sub16_Trial41_0,0,2,2,-68.13431,True,0.985
16,0,19-May-2018,1,1,41,Sub16_Trial41_0,0,3,3,-8.136673,True,0.985
16,0,19-May-2018,1,1,41,Sub16_Trial41_0,0,4,4,12.99792,True,0.985
16,0,19-May-2018,1,1,41,Sub16_Trial41_0,0,5,5,72.005727,True,0.985
16,0,19-May-2018,1,1,41,Sub16_Trial41_0,0,6,6,68.040551,True,0.985
16,0,19-May-2018,1,1,41,Sub16_Trial41_1,1,0,0,-6.39813,False,0.985
16,0,19-May-2018,1,1,41,Sub16_Trial41_1,1,1,1,-80.112178,False,0.985
16,0,19-May-2018,1,1,41,Sub16_Trial41_1,1,2,2,-108.672842,False,0.985
16,0,19-May-2018,1,1,41,Sub16_Trial41_1,1,3,3,-119.024422,False,0.985
16,0,19-May-2018,1,1,41,Sub16_Trial41_1,1,4,4,-21.322371,False,0.985
16,0,19-May-2018,1,1,41,Sub16_Trial41_1,1,5,5,-1.255828,False,0.985
16,0,19-May-2018,1,1,41,Sub16_Trial41_1,1,6,6,-34.650876,False,0.985
16,0,19-May-2018,1,1,42,Sub16_Trial42_0,0,0,0,8.855142,True,1.337
16,0,19-May-2018,1,1,42,Sub16_Trial42_0,0,1,1,-149.064279,True,1.337
16,0,19-May-2018,1,1,42,Sub16_Trial42_0,0,2,2,52.883269,True,1.337
16,0,19-May-2018,1,1,42,Sub16_Trial42_0,0,3,3,61.255482,True,1.337
16,0,19-May-2018,1,1,42,Sub16_Trial42_0,0,4,4,78.312455,True,1.337
16,0,19-May-2018,1,1,42,Sub16_Trial42_0,0,5,5,-80.484417,True,1.337
16,0,19-May-2018,1,1,42,Sub16_Trial42_0,0,6,6,-80.304382,True,1.337
16,0,19-May-2018,1,1,42,Sub16_Trial42_1,1,0,0,-170.409026,False,1.337
16,0,19-May-2018,1,1,42,Sub16_Trial42_1,1,1,1,-127.818197,False,1.337
16,0,19-May-2018,1,1,42,Sub16_Trial42_1,1,2,2,10.015172,False,1.337
16,0,19-May-2018,1,1,42,Sub16_Trial42_1,1,3,3,26.223144,False,1.337
16,0,19-May-2018,1,1,42,Sub16_Trial42_1,1,4,4,20.461038,False,1.337
16,0,19-May-2018,1,1,42,Sub16_Trial42_1,1,5,5,-37.321215,False,1.337
16,0,19-May-2018,1,1,42,Sub16_Trial42_1,1,6,6,-18.372574,False,1.337
16,0,19-May-2018,1,1,43,Sub16_Trial43_0,0,0,0,159.456851,False,1.251
16,0,19-May-2018,1,1,43,Sub16_Trial43_0,0,1,1,-0.055571,False,1.251
16,0,19-May-2018,1,1,43,Sub16_Trial43_0,0,2,2,124.354313,False,1.251
16,0,19-May-2018,1,1,43,Sub16_Trial43_0,0,3,3,50.371235,False,1.251
16,0,19-May-2018,1,1,43,Sub16_Trial43_0,0,4,4,-135.378189,False,1.251
16,0,19-May-2018,1,1,43,Sub16_Trial43_0,0,5,5,-73.733213,False,1.251
16,0,19-May-2018,1,1,43,Sub16_Trial43_0,0,6,6,-27.195358,False,1.251
16,0,19-May-2018,1,1,43,Sub16_Trial43_1,1,0,0,-1.600167,True,1.251
16,0,19-May-2018,1,1,43,Sub16_Trial43_1,1,1,1,-164.050375,True,1.251
16,0,19-May-2018,1,1,43,Sub16_Trial43_1,1,2,2,-83.783619,True,1.251
16,0,19-May-2018,1,1,43,Sub16_Trial43_1,1,3,3,-14.945408,True,1.251
16,0,19-May-2018,1,1,43,Sub16_Trial43_1,1,4,4,22.52339,True,1.251
16,0,19-May-2018,1,1,43,Sub16_Trial43_1,1,5,5,-60.057708,True,1.251
16,0,19-May-2018,1,1,43,Sub16_Trial43_1,1,6,6,-96.488015,True,1.251
16,0,19-May-2018,1,1,44,Sub16_Trial44_0,0,0,0,49.839813,False,1.269
16,0,19-May-2018,1,1,44,Sub16_Trial44_0,0,1,1,104.882674,False,1.269
16,0,19-May-2018,1,1,44,Sub16_Trial44_0,0,2,2,-10.229089,False,1.269
16,0,19-May-2018,1,1,44,Sub16_Trial44_0,0,3,3,187.776084,False,1.269
16,0,19-May-2018,1,1,44,Sub16_Trial44_0,0,4,4,-146.899356,False,1.269
16,0,19-May-2018,1,1,44,Sub16_Trial44_0,0,5,5,145.694463,False,1.269
16,0,19-May-2018,1,1,44,Sub16_Trial44_0,0,6,6,-126.87112,False,1.269
16,0,19-May-2018,1,1,44,Sub16_Trial44_1,1,0,0,-8.570392,True,1.269
16,0,19-May-2018,1,1,44,Sub16_Trial44_1,1,1,1,145.512447,True,1.269
16,0,19-May-2018,1,1,44,Sub16_Trial44_1,1,2,2,50.53021,True,1.269
16,0,19-May-2018,1,1,44,Sub16_Trial44_1,1,3,3,-13.339814,True,1.269
16,0,19-May-2018,1,1,44,Sub16_Trial44_1,1,4,4,-103.861439,True,1.269
16,0,19-May-2018,1,1,44,Sub16_Trial44_1,1,5,5,97.947695,True,1.269
16,0,19-May-2018,1,1,44,Sub16_Trial44_1,1,6,6,-117.418494,True,1.269
16,0,19-May-2018,1,1,45,Sub16_Trial45_0,0,0,0,197.512483,True,1.764
16,0,19-May-2018,1,1,45,Sub16_Trial45_0,0,1,1,-76.196791,True,1.764
16,0,19-May-2018,1,1,45,Sub16_Trial45_0,0,2,2,-60.003902,True,1.764
16,0,19-May-2018,1,1,45,Sub16_Trial45_0,0,3,3,-36.649257,True,1.764
16,0,19-May-2018,1,1,45,Sub16_Trial45_0,0,4,4,-27.197111,True,1.764
16,0,19-May-2018,1,1,45,Sub16_Trial45_0,0,5,5,72.668319,True,1.764
16,0,19-May-2018,1,1,45,Sub16_Trial45_0,0,6,6,-20.366073,True,1.764
16,0,19-May-2018,1,1,45,Sub16_Trial45_1,1,0,0,90.45376,False,1.764
16,0,19-May-2018,1,1,45,Sub16_Trial45_1,1,1,1,-101.929064,False,1.764
16,0,19-May-2018,1,1,45,Sub16_Trial45_1,1,2,2,103.015122,False,1.764
16,0,19-May-2018,1,1,45,Sub16_Trial45_1,1,3,3,-21.547814,False,1.764
16,0,19-May-2018,1,1,45,Sub16_Trial45_1,1,4,4,-54.329025,False,1.764
16,0,19-May-2018,1,1,45,Sub16_Trial45_1,1,5,5,-87.666159,False,1.764
16,0,19-May-2018,1,1,45,Sub16_Trial45_1,1,6,6,-106.517481,False,1.764
16,0,19-May-2018,1,1,46,Sub16_Trial46_0,0,0,0,-40.740064,False,1.209
16,0,19-May-2018,1,1,46,Sub16_Trial46_0,0,1,1,-27.473814,False,1.209
16,0,19-May-2018,1,1,46,Sub16_Trial46_0,0,2,2,91.564091,False,1.209
16,0,19-May-2018,1,1,46,Sub16_Trial46_0,0,3,3,-95.068265,False,1.209
16,0,19-May-2018,1,1,46,Sub16_Trial46_0,0,4,4,-85.65366,False,1.209
16,0,19-May-2018,1,1,46,Sub16_Trial46_0,0,5,5,94.089462,False,1.209
16,0,19-May-2018,1,1,46,Sub16_Trial46_0,0,6,6,79.45277,False,1.209
16,0,19-May-2018,1,1,46,Sub16_Trial46_1,1,0,0,101.6045,True,1.209
16,0,19-May-2018,1,1,46,Sub16_Trial46_1,1,1,1,-26.375922,True,1.209
16,0,19-May-2018,1,1,46,Sub16_Trial46_1,1,2,2,-9.958723,True,1.209
16,0,19-May-2018,1,1,46,Sub16_Trial46_1,1,3,3,-134.683475,True,1.209
16,0,19-May-2018,1,1,46,Sub16_Trial46_1,1,4,4,171.589614,True,1.209
16,0,19-May-2018,1,1,46,Sub16_Trial46_1,1,5,5,85.216357,True,1.209
16,0,19-May-2018,1,1,46,Sub16_Trial46_1,1,6,6,109.331525,True,1.209
16,0,19-May-2018,1,1,47,Sub16_Trial47_0,0,0,0,78.651773,False,0.963
16,0,19-May-2018,1,1,47,Sub16_Trial47_0,0,1,1,-45.007505,False,0.963
16,0,19-May-2018,1,1,47,Sub16_Trial47_0,0,2,2,62.804922,False,0.963
16,0,19-May-2018,1,1,47,Sub16_Trial47_0,0,3,3,60.976397,False,0.963
16,0,19-May-2018,1,1,47,Sub16_Trial47_0,0,4,4,-51.99175,False,0.963
16,0,19-May-2018,1,1,47,Sub16_Trial47_0,0,5,5,-42.641875,False,0.963
16,0,19-May-2018,1,1,47,Sub16_Trial47_0,0,6,6,-55.353816,False,0.963
16,0,19-May-2018,1,1,47,Sub16_Trial47_1,1,0,0,25.496397,True,0.963
16,0,19-May-2018,1,1,47,Sub16_Trial47_1,1,1,1,54.4319,True,0.963
16,0,19-May-2018,1,1,47,Sub16_Trial47_1,1,2,2,35.34851,True,0.963
16,0,19-May-2018,1,1,47,Sub16_Trial47_1,1,3,3,22.55368,True,0.963
16,0,19-May-2018,1,1,47,Sub16_Trial47_1,1,4,4,114.867184,True,0.963
16,0,19-May-2018,1,1,47,Sub16_Trial47_1,1,5,5,128.177862,True,0.963
16,0,19-May-2018,1,1,47,Sub16_Trial47_1,1,6,6,8.399383,True,0.963
16,0,19-May-2018,1,1,48,Sub16_Trial48_0,0,0,0,169.909363,True,1.255
16,0,19-May-2018,1,1,48,Sub16_Trial48_0,0,1,1,71.080728,True,1.255
16,0,19-May-2018,1,1,48,Sub16_Trial48_0,0,2,2,-25.303034,True,1.255
16,0,19-May-2018,1,1,48,Sub16_Trial48_0,0,3,3,-38.901,True,1.255
16,0,19-May-2018,1,1,48,Sub16_Trial48_0,0,4,4,26.702171,True,1.255
16,0,19-May-2018,1,1,48,Sub16_Trial48_0,0,5,5,103.865588,True,1.255
16,0,19-May-2018,1,1,48,Sub16_Trial48_0,0,6,6,-68.708172,True,1.255
16,0,19-May-2018,1,1,48,Sub16_Trial48_1,1,0,0,101.484368,False,1.255
16,0,19-May-2018,1,1,48,Sub16_Trial48_1,1,1,1,31.72151,False,1.255
16,0,19-May-2018,1,1,48,Sub16_Trial48_1,1,2,2,31.664172,False,1.255
16,0,19-May-2018,1,1,48,Sub16_Trial48_1,1,3,3,-41.44014,False,1.255
16,0,19-May-2018,1,1,48,Sub16_Trial48_1,1,4,4,-31.679464,False,1.255
16,0,19-May-2018,1,1,48,Sub16_Trial48_1,1,5,5,-63.644758,False,1.255
16,0,19-May-2018,1,1,48,Sub16_Trial48_1,1,6,6,-159.816518,False,1.255
16,0,19-May-2018,1,1,49,Sub16_Trial49_0,0,0,0,78.748847,False,0.714
16,0,19-May-2018,1,1,49,Sub16_Trial49_0,0,1,1,114.13643,False,0.714
16,0,19-May-2018,1,1,49,Sub16_Trial49_0,0,2,2,-122.76037,False,0.714
16,0,19-May-2018,1,1,49,Sub16_Trial49_0,0,3,3,-104.016566,False,0.714
16,0,19-May-2018,1,1,49,Sub16_Trial49_0,0,4,4,-53.246107,False,0.714
16,0,19-May-2018,1,1,49,Sub16_Trial49_0,0,5,5,-40.74891,False,0.714
16,0,19-May-2018,1,1,49,Sub16_Trial49_0,0,6,6,-38.645399,False,0.714
16,0,19-May-2018,1,1,49,Sub16_Trial49_1,1,0,0,-37.072381,True,0.714
16,0,19-May-2018,1,1,49,Sub16_Trial49_1,1,1,1,60.505393,True,0.714
16,0,19-May-2018,1,1,49,Sub16_Trial49_1,1,2,2,108.739389,True,0.714
16,0,19-May-2018,1,1,49,Sub16_Trial49_1,1,3,3,85.549074,True,0.714
16,0,19-May-2018,1,1,49,Sub16_Trial49_1,1,4,4,12.779584,True,0.714
16,0,19-May-2018,1,1,49,Sub16_Trial49_1,1,5,5,77.099827,True,0.714
16,0,19-May-2018,1,1,49,Sub16_Trial49_1,1,6,6,58.740413,True,0.714
16,0,19-May-2018,1,1,50,Sub16_Trial50_0,0,0,0,-103.839756,False,0.873
16,0,19-May-2018,1,1,50,Sub16_Trial50_0,0,1,1,-71.121843,False,0.873
16,0,19-May-2018,1,1,50,Sub16_Trial50_0,0,2,2,0.444809,False,0.873
16,0,19-May-2018,1,1,50,Sub16_Trial50_0,0,3,3,158.888597,False,0.873
16,0,19-May-2018,1,1,50,Sub16_Trial50_0,0,4,4,-105.490587,False,0.873
16,0,19-May-2018,1,1,50,Sub16_Trial50_0,0,5,5,-104.690536,False,0.873
16,0,19-May-2018,1,1,50,Sub16_Trial50_0,0,6,6,-36.409195,False,0.873
16,0,19-May-2018,1,1,50,Sub16_Trial50_1,1,0,0,7.180279,True,0.873
16,0,19-May-2018,1,1,50,Sub16_Trial50_1,1,1,1,-25.047989,True,0.873
16,0,19-May-2018,1,1,50,Sub16_Trial50_1,1,2,2,4.534053,True,0.873
16,0,19-May-2018,1,1,50,Sub16_Trial50_1,1,3,3,35.667081,True,0.873
16,0,19-May-2018,1,1,50,Sub16_Trial50_1,1,4,4,-55.741085,True,0.873
16,0,19-May-2018,1,1,50,Sub16_Trial50_1,1,5,5,-62.782412,True,0.873
16,0,19-May-2018,1,1,50,Sub16_Trial50_1,1,6,6,-70.170458,True,0.873
16,0,19-May-2018,1,2,51,Sub16_Trial51_0,0,0,0,-76.457203,False,6.856
16,0,19-May-2018,1,2,51,Sub16_Trial51_0,0,1,1,25.591295,False,6.856
16,0,19-May-2018,1,2,51,Sub16_Trial51_0,0,2,2,29.254942,False,6.856
16,0,19-May-2018,1,2,51,Sub16_Trial51_0,0,3,3,-94.174301,False,6.856
16,0,19-May-2018,1,2,51,Sub16_Trial51_0,0,4,4,-109.325801,False,6.856
16,0,19-May-2018,1,2,51,Sub16_Trial51_0,0,5,5,-32.470679,False,6.856
16,0,19-May-2018,1,2,51,Sub16_Trial51_0,0,6,6,-52.279988,False,6.856
16,0,19-May-2018,1,2,51,Sub16_Trial51_1,1,0,0,167.367695,True,6.856
16,0,19-May-2018,1,2,51,Sub16_Trial51_1,1,1,1,-68.823767,True,6.856
16,0,19-May-2018,1,2,51,Sub16_Trial51_1,1,2,2,-128.204272,True,6.856
16,0,19-May-2018,1,2,51,Sub16_Trial51_1,1,3,3,21.164619,True,6.856
16,0,19-May-2018,1,2,51,Sub16_Trial51_1,1,4,4,178.189878,True,6.856
16,0,19-May-2018,1,2,51,Sub16_Trial51_1,1,5,5,110.051234,True,6.856
16,0,19-May-2018,1,2,51,Sub16_Trial51_1,1,6,6,-176.72518,True,6.856
16,0,19-May-2018,1,2,52,Sub16_Trial52_0,0,0,0,125.227566,True,2.878
16,0,19-May-2018,1,2,52,Sub16_Trial52_0,0,1,1,-92.782593,True,2.878
16,0,19-May-2018,1,2,52,Sub16_Trial52_0,0,2,2,5.105686,True,2.878
16,0,19-May-2018,1,2,52,Sub16_Trial52_0,0,3,3,65.48979,True,2.878
16,0,19-May-2018,1,2,52,Sub16_Trial52_0,0,4,4,63.095278,True,2.878
16,0,19-May-2018,1,2,52,Sub16_Trial52_0,0,5,5,94.687652,True,2.878
16,0,19-May-2018,1,2,52,Sub16_Trial52_0,0,6,6,-74.673499,True,2.878
16,0,19-May-2018,1,2,52,Sub16_Trial52_1,1,0,0,-94.006446,False,2.878
16,0,19-May-2018,1,2,52,Sub16_Trial52_1,1,1,1,66.242929,False,2.878
16,0,19-May-2018,1,2,52,Sub16_Trial52_1,1,2,2,-6.188104,False,2.878
16,0,19-May-2018,1,2,52,Sub16_Trial52_1,1,3,3,79.52823,False,2.878
16,0,19-May-2018,1,2,52,Sub16_Trial52_1,1,4,4,55.47806,False,2.878
16,0,19-May-2018,1,2,52,Sub16_Trial52_1,1,5,5,-86.806706,False,2.878
16,0,19-May-2018,1,2,52,Sub16_Trial52_1,1,6,6,-51.269063,False,2.878
16,0,19-May-2018,1,2,53,Sub16_Trial53_0,0,0,0,-147.796146,False,2.595
16,0,19-May-2018,1,2,53,Sub16_Trial53_0,0,1,1,27.476016,False,2.595
16,0,19-May-2018,1,2,53,Sub16_Trial53_0,0,2,2,-66.818475,False,2.595
16,0,19-May-2018,1,2,53,Sub16_Trial53_0,0,3,3,-26.812382,False,2.595
16,0,19-May-2018,1,2,53,Sub16_Trial53_0,0,4,4,-4.689469,False,2.595
16,0,19-May-2018,1,2,53,Sub16_Trial53_0,0,5,5,-49.421969,False,2.595
16,0,19-May-2018,1,2,53,Sub16_Trial53_0,0,6,6,-78.7579,False,2.595
16,0,19-May-2018,1,2,53,Sub16_Trial53_1,1,0,0,13.25992,True,2.595
16,0,19-May-2018,1,2,53,Sub16_Trial53_1,1,1,1,-45.75879,True,2.595
16,0,19-May-2018,1,2,53,Sub16_Trial53_1,1,2,2,2.065851,True,2.595
16,0,19-May-2018,1,2,53,Sub16_Trial53_1,1,3,3,-84.198264,True,2.595
16,0,19-May-2018,1,2,53,Sub16_Trial53_1,1,4,4,-190.281574,True,2.595
16,0,19-May-2018,1,2,53,Sub16_Trial53_1,1,5,5,88.982491,True,2.595
16,0,19-May-2018,1,2,53,Sub16_Trial53_1,1,6,6,-131.52829,True,2.595
16,0,19-May-2018,1,2,54,Sub16_Trial54_0,0,0,0,-97.799866,False,0.794
16,0,19-May-2018,1,2,54,Sub16_Trial54_0,0,1,1,-3.703893,False,0.794
16,0,19-May-2018,1,2,54,Sub16_Trial54_0,0,2,2,-26.998271,False,0.794
16,0,19-May-2018,1,2,54,Sub16_Trial54_0,0,3,3,160.700693,False,0.794
16,0,19-May-2018,1,2,54,Sub16_Trial54_0,0,4,4,-35.653731,False,0.794
16,0,19-May-2018,1,2,54,Sub16_Trial54_0,0,5,5,-55.949765,False,0.794
16,0,19-May-2018,1,2,54,Sub16_Trial54_0,0,6,6,-121.323965,False,0.794
16,0,19-May-2018,1,2,54,Sub16_Trial54_1,1,0,0,5.913007,True,0.794
16,0,19-May-2018,1,2,54,Sub16_Trial54_1,1,1,1,41.11107,True,0.794
16,0,19-May-2018,1,2,54,Sub16_Trial54_1,1,2,2,21.657851,True,0.794
16,0,19-May-2018,1,2,54,Sub16_Trial54_1,1,3,3,21.562684,True,0.794
16,0,19-May-2018,1,2,54,Sub16_Trial54_1,1,4,4,4.404083,True,0.794
16,0,19-May-2018,1,2,54,Sub16_Trial54_1,1,5,5,46.675323,True,0.794
16,0,19-May-2018,1,2,54,Sub16_Trial54_1,1,6,6,51.24303,True,0.794
16,0,19-May-2018,1,2,55,Sub16_Trial55_0,0,0,0,64.877022,True,2.452
16,0,19-May-2018,1,2,55,Sub16_Trial55_0,0,1,1,-22.001054,True,2.452
16,0,19-May-2018,1,2,55,Sub16_Trial55_0,0,2,2,-195.047408,True,2.452
16,0,19-May-2018,1,2,55,Sub16_Trial55_0,0,3,3,145.03864,True,2.452
16,0,19-May-2018,1,2,55,Sub16_Trial55_0,0,4,4,156.027822,True,2.452
16,0,19-May-2018,1,2,55,Sub16_Trial55_0,0,5,5,21.20009,True,2.452
16,0,19-May-2018,1,2,55,Sub16_Trial55_0,0,6,6,72.360703,True,2.452
16,0,19-May-2018,1,2,55,Sub16_Trial55_1,1,0,0,15.047733,False,2.452
16,0,19-May-2018,1,2,55,Sub16_Trial55_1,1,1,1,-70.241412,False,2.452
16,0,19-May-2018,1,2,55,Sub16_Trial55_1,1,2,2,138.80604,False,2.452
16,0,19-May-2018,1,2,55,Sub16_Trial55_1,1,3,3,59.37991,False,2.452
16,0,19-May-2018,1,2,55,Sub16_Trial55_1,1,4,4,179.729735,False,2.452
16,0,19-May-2018,1,2,55,Sub16_Trial55_1,1,5,5,-188.379029,False,2.452
16,0,19-May-2018,1,2,55,Sub16_Trial55_1,1,6,6,-43.504173,False,2.452
16,0,19-May-2018,1,2,56,Sub16_Trial56_0,0,0,0,-89.662476,True,1.27
16,0,19-May-2018,1,2,56,Sub16_Trial56_0,0,1,1,60.149739,True,1.27
16,0,19-May-2018,1,2,56,Sub16_Trial56_0,0,2,2,20.61593,True,1.27
16,0,19-May-2018,1,2,56,Sub16_Trial56_0,0,3,3,-113.788627,True,1.27
16,0,19-May-2018,1,2,56,Sub16_Trial56_0,0,4,4,32.397486,True,1.27
16,0,19-May-2018,1,2,56,Sub16_Trial56_0,0,5,5,-27.326362,True,1.27
16,0,19-May-2018,1,2,56,Sub16_Trial56_0,0,6,6,61.543413,True,1.27
16,0,19-May-2018,1,2,56,Sub16_Trial56_1,1,0,0,78.710389,False,1.27
16,0,19-May-2018,1,2,56,Sub16_Trial56_1,1,1,1,44.332344,False,1.27
16,0,19-May-2018,1,2,56,Sub16_Trial56_1,1,2,2,116.889435,False,1.27
16,0,19-May-2018,1,2,56,Sub16_Trial56_1,1,3,3,-69.916637,False,1.27
16,0,19-May-2018,1,2,56,Sub16_Trial56_1,1,4,4,16.533348,False,1.27
16,0,19-May-2018,1,2,56,Sub16_Trial56_1,1,5,5,-163.727047,False,1.27
16,0,19-May-2018,1,2,56,Sub16_Trial56_1,1,6,6,27.086943,False,1.27
16,0,19-May-2018,1,2,57,Sub16_Trial57_0,0,0,0,-70.602181,False,2.755
16,0,19-May-2018,1,2,57,Sub16_Trial57_0,0,1,1,-51.064697,False,2.755
16,0,19-May-2018,1,2,57,Sub16_Trial57_0,0,2,2,-78.770225,False,2.755
16,0,19-May-2018,1,2,57,Sub16_Trial57_0,0,3,3,-40.316769,False,2.755
16,0,19-May-2018,1,2,57,Sub16_Trial57_0,0,4,4,-86.496244,False,2.755
16,0,19-May-2018,1,2,57,Sub16_Trial57_0,0,5,5,-32.118475,False,2.755
16,0,19-May-2018,1,2,57,Sub16_Trial57_0,0,6,6,-48.678993,False,2.755
16,0,19-May-2018,1,2,57,Sub16_Trial57_1,1,0,0,-194.166366,True,2.755
16,0,19-May-2018,1,2,57,Sub16_Trial57_1,1,1,1,-103.020833,True,2.755
16,0,19-May-2018,1,2,57,Sub16_Trial57_1,1,2,2,-121.987391,True,2.755
16,0,19-May-2018,1,2,57,Sub16_Trial57_1,1,3,3,-109.257773,True,2.755
16,0,19-May-2018,1,2,57,Sub16_Trial57_1,1,4,4,-26.567152,True,2.755
16,0,19-May-2018,1,2,57,Sub16_Trial57_1,1,5,5,87.659139,True,2.755
16,0,19-May-2018,1,2,57,Sub16_Trial57_1,1,6,6,-144.224741,True,2.755
16,0,19-May-2018,1,2,58,Sub16_Trial58_0,0,0,0,-46.696345,False,1.17
16,0,19-May-2018,1,2,58,Sub16_Trial58_0,0,1,1,-74.028418,False,1.17
16,0,19-May-2018,1,2,58,Sub16_Trial58_0,0,2,2,131.003298,False,1.17
16,0,19-May-2018,1,2,58,Sub16_Trial58_0,0,3,3,-114.126928,False,1.17
16,0,19-May-2018,1,2,58,Sub16_Trial58_0,0,4,4,78.618832,False,1.17
16,0,19-May-2018,1,2,58,Sub16_Trial58_0,0,5,5,-143.814975,False,1.17
16,0,19-May-2018,1,2,58,Sub16_Trial58_0,0,6,6,28.19826,False,1.17
16,0,19-May-2018,1,2,58,Sub16_Trial58_1,1,0,0,-116.55796,True,1.17
16,0,19-May-2018,1,2,58,Sub16_Trial58_1,1,1,1,-19.491378,True,1.17
16,0,19-May-2018,1,2,58,Sub16_Trial58_1,1,2,2,-72.150179,True,1.17
16,0,19-May-2018,1,2,58,Sub16_Trial58_1,1,3,3,-33.164677,True,1.17
16,0,19-May-2018,1,2,58,Sub16_Trial58_1,1,4,4,71.621064,True,1.17
16,0,19-May-2018,1,2,58,Sub16_Trial58_1,1,5,5,-76.677903,True,1.17
16,0,19-May-2018,1,2,58,Sub16_Trial58_1,1,6,6,35.575377,True,1.17
16,0,19-May-2018,1,2,59,Sub16_Trial59_0,0,0,0,1.954665,False,0.7
16,0,19-May-2018,1,2,59,Sub16_Trial59_0,0,1,1,139.973513,False,0.7
16,0,19-May-2018,1,2,59,Sub16_Trial59_0,0,2,2,-6.4163,False,0.7
16,0,19-May-2018,1,2,59,Sub16_Trial59_0,0,3,3,-18.19572,False,0.7
16,0,19-May-2018,1,2,59,Sub16_Trial59_0,0,4,4,-95.992974,False,0.7
16,0,19-May-2018,1,2,59,Sub16_Trial59_0,0,5,5,-118.91565,False,0.7
16,0,19-May-2018,1,2,59,Sub16_Trial59_0,0,6,6,-28.501274,False,0.7
16,0,19-May-2018,1,2,59,Sub16_Trial59_1,1,0,0,74.338825,True,0.7
16,0,19-May-2018,1,2,59,Sub16_Trial59_1,1,1,1,-31.496724,True,0.7
16,0,19-May-2018,1,2,59,Sub16_Trial59_1,1,2,2,-66.219378,True,0.7
16,0,19-May-2018,1,2,59,Sub16_Trial59_1,1,3,3,14.920956,True,0.7
16,0,19-May-2018,1,2,59,Sub16_Trial59_1,1,4,4,-63.628237,True,0.7
16,0,19-May-2018,1,2,59,Sub16_Trial59_1,1,5,5,85.816148,True,0.7
16,0,19-May-2018,1,2,59,Sub16_Trial59_1,1,6,6,-9.32907,True,0.7
16,0,19-May-2018,1,2,60,Sub16_Trial60_0,0,0,0,-65.310579,True,2.159
16,0,19-May-2018,1,2,60,Sub16_Trial60_0,0,1,1,-168.043416,True,2.159
16,0,19-May-2018,1,2,60,Sub16_Trial60_0,0,2,2,-130.591053,True,2.159
16,0,19-May-2018,1,2,60,Sub16_Trial60_0,0,3,3,-15.705035,True,2.159
16,0,19-May-2018,1,2,60,Sub16_Trial60_0,0,4,4,-51.059007,True,2.159
16,0,19-May-2018,1,2,60,Sub16_Trial60_0,0,5,5,-58.873356,True,2.159
16,0,19-May-2018,1,2,60,Sub16_Trial60_0,0,6,6,142.524522,True,2.159
16,0,19-May-2018,1,2,60,Sub16_Trial60_1,1,0,0,-130.298623,False,2.159
16,0,19-May-2018,1,2,60,Sub16_Trial60_1,1,1,1,4.050931,False,2.159
16,0,19-May-2018,1,2,60,Sub16_Trial60_1,1,2,2,-139.39291,False,2.159
16,0,19-May-2018,1,2,60,Sub16_Trial60_1,1,3,3,129.109984,False,2.159
16,0,19-May-2018,1,2,60,Sub16_Trial60_1,1,4,4,-34.923992,False,2.159
16,0,19-May-2018,1,2,60,Sub16_Trial60_1,1,5,5,-45.382436,False,2.159
16,0,19-May-2018,1,2,60,Sub16_Trial60_1,1,6,6,3.386039,False,2.159
16,0,19-May-2018,1,2,61,Sub16_Trial61_0,0,0,0,131.30638,False,2.316
16,0,19-May-2018,1,2,61,Sub16_Trial61_0,0,1,1,139.352935,False,2.316
16,0,19-May-2018,1,2,61,Sub16_Trial61_0,0,2,2,-150.328022,False,2.316
16,0,19-May-2018,1,2,61,Sub16_Trial61_0,0,3,3,54.523701,False,2.316
16,0,19-May-2018,1,2,61,Sub16_Trial61_0,0,4,4,39.921606,False,2.316
16,0,19-May-2018,1,2,61,Sub16_Trial61_0,0,5,5,55.351251,False,2.316
16,0,19-May-2018,1,2,61,Sub16_Trial61_0,0,6,6,154.700036,False,2.316
16,0,19-May-2018,1,2,61,Sub16_Trial61_1,1,0,0,28.865791,True,2.316
16,0,19-May-2018,1,2,61,Sub16_Trial61_1,1,1,1,36.561241,True,2.316
16,0,19-May-2018,1,2,61,Sub16_Trial61_1,1,2,2,-131.668835,True,2.316
16,0,19-May-2018,1,2,61,Sub16_Trial61_1,1,3,3,25.637065,True,2.316
16,0,19-May-2018,1,2,61,Sub16_Trial61_1,1,4,4,-67.520539,True,2.316
16,0,19-May-2018,1,2,61,Sub16_Trial61_1,1,5,5,-31.614287,True,2.316
16,0,19-May-2018,1,2,61,Sub16_Trial61_1,1,6,6,14.432991,True,2.316
16,0,19-May-2018,1,2,62,Sub16_Trial62_0,0,0,0,-166.760478,False,0.823
16,0,19-May-2018,1,2,62,Sub16_Trial62_0,0,1,1,76.478449,False,0.823
16,0,19-May-2018,1,2,62,Sub16_Trial62_0,0,2,2,51.041701,False,0.823
16,0,19-May-2018,1,2,62,Sub16_Trial62_0,0,3,3,26.306852,False,0.823
16,0,19-May-2018,1,2,62,Sub16_Trial62_0,0,4,4,-78.894412,False,0.823
16,0,19-May-2018,1,2,62,Sub16_Trial62_0,0,5,5,-50.833598,False,0.823
16,0,19-May-2018,1,2,62,Sub16_Trial62_0,0,6,6,113.891962,False,0.823
16,0,19-May-2018,1,2,62,Sub16_Trial62_1,1,0,0,-51.806349,True,0.823
16,0,19-May-2018,1,2,62,Sub16_Trial62_1,1,1,1,31.048766,True,0.823
16,0,19-May-2018,1,2,62,Sub16_Trial62_1,1,2,2,44.702621,True,0.823
16,0,19-May-2018,1,2,62,Sub16_Trial62_1,1,3,3,-19.575482,True,0.823
16,0,19-May-2018,1,2,62,Sub16_Trial62_1,1,4,4,-26.773581,True,0.823
16,0,19-May-2018,1,2,62,Sub16_Trial62_1,1,5,5,62.091165,True,0.823
16,0,19-May-2018,1,2,62,Sub16_Trial62_1,1,6,6,-10.356961,True,0.823
16,0,19-May-2018,1,2,63,Sub16_Trial63_0,0,0,0,195.27938,True,1.501
16,0,19-May-2018,1,2,63,Sub16_Trial63_0,0,1,1,-21.838706,True,1.501
16,0,19-May-2018,1,2,63,Sub16_Trial63_0,0,2,2,36.109719,True,1.501
16,0,19-May-2018,1,2,63,Sub16_Trial63_0,0,3,3,113.715138,True,1.501
16,0,19-May-2018,1,2,63,Sub16_Trial63_0,0,4,4,-57.571737,True,1.501
16,0,19-May-2018,1,2,63,Sub16_Trial63_0,0,5,5,70.261062,True,1.501
16,0,19-May-2018,1,2,63,Sub16_Trial63_0,0,6,6,5.640534,True,1.501
16,0,19-May-2018,1,2,63,Sub16_Trial63_1,1,0,0,101.511058,False,1.501
16,0,19-May-2018,1,2,63,Sub16_Trial63_1,1,1,1,-64.254457,False,1.501
16,0,19-May-2018,1,2,63,Sub16_Trial63_1,1,2,2,129.763638,False,1.501
16,0,19-May-2018,1,2,63,Sub16_Trial63_1,1,3,3,107.940292,False,1.501
16,0,19-May-2018,1,2,63,Sub16_Trial63_1,1,4,4,-2.855368,False,1.501
16,0,19-May-2018,1,2,63,Sub16_Trial63_1,1,5,5,-113.155345,False,1.501
16,0,19-May-2018,1,2,63,Sub16_Trial63_1,1,6,6,192.984658,False,1.501
16,0,19-May-2018,1,2,64,Sub16_Trial64_0,0,0,0,100.653359,False,1.539
16,0,19-May-2018,1,2,64,Sub16_Trial64_0,0,1,1,-93.418377,False,1.539
16,0,19-May-2018,1,2,64,Sub16_Trial64_0,0,2,2,-83.562427,False,1.539
16,0,19-May-2018,1,2,64,Sub16_Trial64_0,0,3,3,-9.557909,False,1.539
16,0,19-May-2018,1,2,64,Sub16_Trial64_0,0,4,4,33.287105,False,1.539
16,0,19-May-2018,1,2,64,Sub16_Trial64_0,0,5,5,78.512208,False,1.539
16,0,19-May-2018,1,2,64,Sub16_Trial64_0,0,6,6,112.537536,False,1.539
16,0,19-May-2018,1,2,64,Sub16_Trial64_1,1,0,0,13.124791,True,1.539
16,0,19-May-2018,1,2,64,Sub16_Trial64_1,1,1,1,81.99181,True,1.539
16,0,19-May-2018,1,2,64,Sub16_Trial64_1,1,2,2,-90.426621,True,1.539
16,0,19-May-2018,1,2,64,Sub16_Trial64_1,1,3,3,-114.877683,True,1.539
16,0,19-May-2018,1,2,64,Sub16_Trial64_1,1,4,4,120.768805,True,1.539
16,0,19-May-2018,1,2,64,Sub16_Trial64_1,1,5,5,62.961406,True,1.539
16,0,19-May-2018,1,2,64,Sub16_Trial64_1,1,6,6,-87.248456,True,1.539
16,0,19-May-2018,1,2,65,Sub16_Trial65_0,0,0,0,-99.631217,False,1.504
16,0,19-May-2018,1,2,65,Sub16_Trial65_0,0,1,1,-123.854554,False,1.504
16,0,19-May-2018,1,2,65,Sub16_Trial65_0,0,2,2,125.230675,False,1.504
16,0,19-May-2018,1,2,65,Sub16_Trial65_0,0,3,3,-38.535705,False,1.504
16,0,19-May-2018,1,2,65,Sub16_Trial65_0,0,4,4,-92.99723,False,1.504
16,0,19-May-2018,1,2,65,Sub16_Trial65_0,0,5,5,110.851105,False,1.504
16,0,19-May-2018,1,2,65,Sub16_Trial65_0,0,6,6,195.304343,False,1.504
16,0,19-May-2018,1,2,65,Sub16_Trial65_1,1,0,0,-23.431611,True,1.504
16,0,19-May-2018,1,2,65,Sub16_Trial65_1,1,1,1,85.015091,True,1.504
16,0,19-May-2018,1,2,65,Sub16_Trial65_1,1,2,2,-95.445515,True,1.504
16,0,19-May-2018,1,2,65,Sub16_Trial65_1,1,3,3,47.333333,True,1.504
16,0,19-May-2018,1,2,65,Sub16_Trial65_1,1,4,4,93.713448,True,1.504
16,0,19-May-2018,1,2,65,Sub16_Trial65_1,1,5,5,3.783859,True,1.504
16,0,19-May-2018,1,2,65,Sub16_Trial65_1,1,6,6,78.775,True,1.504
16,0,19-May-2018,1,2,66,Sub16_Trial66_0,0,0,0,29.848062,False,0.882
16,0,19-May-2018,1,2,66,Sub16_Trial66_0,0,1,1,46.370131,False,0.882
16,0,19-May-2018,1,2,66,Sub16_Trial66_0,0,2,2,-137.778935,False,0.882
16,0,19-May-2018,1,2,66,Sub16_Trial66_0,0,3,3,35.961715,False,0.882
16,0,19-May-2018,1,2,66,Sub16_Trial66_0,0,4,4,62.078162,False,0.882
16,0,19-May-2018,1,2,66,Sub16_Trial66_0,0,5,5,-76.548708,False,0.882
16,0,19-May-2018,1,2,66,Sub16_Trial66_0,0,6,6,0.549299,False,0.882
16,0,19-May-2018,1,2,66,Sub16_Trial66_1,1,0,0,43.304623,True,0.882
16,0,19-May-2018,1,2,66,Sub16_Trial66_1,1,1,1,48.21142,True,0.882
16,0,19-May-2018,1,2,66,Sub16_Trial66_1,1,2,2,-130.669615,True,0.882
16,0,19-May-2018,1,2,66,Sub16_Trial66_1,1,3,3,-53.682824,True,0.882
16,0,19-May-2018,1,2,66,Sub16_Trial66_1,1,4,4,49.932598,True,0.882
16,0,19-May-2018,1,2,66,Sub16_Trial66_1,1,5,5,116.419384,True,0.882
16,0,19-May-2018,1,2,66,Sub16_Trial66_1,1,6,6,32.367346,True,0.882
16,0,19-May-2018,1,2,67,Sub16_Trial67_0,0,0,0,70.517458,True,2.08
16,0,19-May-2018,1,2,67,Sub16_Trial67_0,0,1,1,3.291221,True,2.08
16,0,19-May-2018,1,2,67,Sub16_Trial67_0,0,2,2,-84.566041,True,2.08
16,0,19-May-2018,1,2,67,Sub16_Trial67_0,0,3,3,53.609399,True,2.08
16,0,19-May-2018,1,2,67,Sub16_Trial67_0,0,4,4,-63.642365,True,2.08
16,0,19-May-2018,1,2,67,Sub16_Trial67_0,0,5,5,-61.874979,True,2.08
16,0,19-May-2018,1,2,67,Sub16_Trial67_0,0,6,6,70.945335,True,2.08
16,0,19-May-2018,1,2,67,Sub16_Trial67_1,1,0,0,53.818808,False,2.08
16,0,19-May-2018,1,2,67,Sub16_Trial67_1,1,1,1,27.594337,False,2.08
16,0,19-May-2018,1,2,67,Sub16_Trial67_1,1,2,2,125.664909,False,2.08
16,0,19-May-2018,1,2,67,Sub16_Trial67_1,1,3,3,60.688263,False,2.08
16,0,19-May-2018,1,2,67,Sub16_Trial67_1,1,4,4,28.05988,False,2.08
16,0,19-May-2018,1,2,67,Sub16_Trial67_1,1,5,5,-64.694937,False,2.08
16,0,19-May-2018,1,2,67,Sub16_Trial67_1,1,6,6,143.755146,False,2.08
16,0,19-May-2018,1,2,68,Sub16_Trial68_0,0,0,0,-71.29514,False,0.846
16,0,19-May-2018,1,2,68,Sub16_Trial68_0,0,1,1,-85.216122,False,0.846
16,0,19-May-2018,1,2,68,Sub16_Trial68_0,0,2,2,-113.244094,False,0.846
16,0,19-May-2018,1,2,68,Sub16_Trial68_0,0,3,3,-174.928722,False,0.846
16,0,19-May-2018,1,2,68,Sub16_Trial68_0,0,4,4,-10.410588,False,0.846
16,0,19-May-2018,1,2,68,Sub16_Trial68_0,0,5,5,2.242622,False,0.846
16,0,19-May-2018,1,2,68,Sub16_Trial68_0,0,6,6,-3.053484,False,0.846
16,0,19-May-2018,1,2,68,Sub16_Trial68_1,1,0,0,63.607043,True,0.846
16,0,19-May-2018,1,2,68,Sub16_Trial68_1,1,1,1,46.248432,True,0.846
16,0,19-May-2018,1,2,68,Sub16_Trial68_1,1,2,2,82.821686,True,0.846
16,0,19-May-2018,1,2,68,Sub16_Trial68_1,1,3,3,18.327776,True,0.846
16,0,19-May-2018,1,2,68,Sub16_Trial68_1,1,4,4,-2.944467,True,0.846
16,0,19-May-2018,1,2,68,Sub16_Trial68_1,1,5,5,50.790158,True,0.846
16,0,19-May-2018,1,2,68,Sub16_Trial68_1,1,6,6,78.253975,True,0.846
16,0,19-May-2018,1,2,69,Sub16_Trial69_0,0,0,0,-4.717257,False,1.102
16,0,19-May-2018,1,2,69,Sub16_Trial69_0,0,1,1,167.988223,False,1.102
16,0,19-May-2018,1,2,69,Sub16_Trial69_0,0,2,2,-109.191172,False,1.102
16,0,19-May-2018,1,2,69,Sub16_Trial69_0,0,3,3,27.701999,False,1.102
16,0,19-May-2018,1,2,69,Sub16_Trial69_0,0,4,4,-51.453113,False,1.102
16,0,19-May-2018,1,2,69,Sub16_Trial69_0,0,5,5,-13.607481,False,1.102
16,0,19-May-2018,1,2,69,Sub16_Trial69_0,0,6,6,80.59876,False,1.102
16,0,19-May-2018,1,2,69,Sub16_Trial69_1,1,0,0,-93.133432,True,1.102
16,0,19-May-2018,1,2,69,Sub16_Trial69_1,1,1,1,-75.850673,True,1.102
16,0,19-May-2018,1,2,69,Sub16_Trial69_1,1,2,2,-102.052764,True,1.102
16,0,19-May-2018,1,2,69,Sub16_Trial69_1,1,3,3,84.505306,True,1.102
16,0,19-May-2018,1,2,69,Sub16_Trial69_1,1,4,4,58.314212,True,1.102
16,0,19-May-2018,1,2,69,Sub16_Trial69_1,1,5,5,-42.894032,True,1.102
16,0,19-May-2018,1,2,69,Sub16_Trial69_1,1,6,6,-68.853822,True,1.102
16,0,19-May-2018,1,2,70,Sub16_Trial70_0,0,0,0,144.979163,False,0.821
16,0,19-May-2018,1,2,70,Sub16_Trial70_0,0,1,1,11.948766,False,0.821
16,0,19-May-2018,1,2,70,Sub16_Trial70_0,0,2,2,37.041096,False,0.821
16,0,19-May-2018,1,2,70,Sub16_Trial70_0,0,3,3,16.13146,False,0.821
16,0,19-May-2018,1,2,70,Sub16_Trial70_0,0,4,4,-16.175182,False,0.821
16,0,19-May-2018,1,2,70,Sub16_Trial70_0,0,5,5,-77.965996,False,0.821
16,0,19-May-2018,1,2,70,Sub16_Trial70_0,0,6,6,147.685656,False,0.821
16,0,19-May-2018,1,2,70,Sub16_Trial70_1,1,0,0,81.110969,True,0.821
16,0,19-May-2018,1,2,70,Sub16_Trial70_1,1,1,1,-120.436911,True,0.821
16,0,19-May-2018,1,2,70,Sub16_Trial70_1,1,2,2,36.95364,True,0.821
16,0,19-May-2018,1,2,70,Sub16_Trial70_1,1,3,3,-131.916697,True,0.821
16,0,19-May-2018,1,2,70,Sub16_Trial70_1,1,4,4,70.759258,True,0.821
16,0,19-May-2018,1,2,70,Sub16_Trial70_1,1,5,5,-158.200503,True,0.821
16,0,19-May-2018,1,2,70,Sub16_Trial70_1,1,6,6,78.630102,True,0.821
16,0,19-May-2018,1,2,71,Sub16_Trial71_0,0,0,0,-35.742983,True,3.228
16,0,19-May-2018,1,2,71,Sub16_Trial71_0,0,1,1,13.902982,True,3.228
16,0,19-May-2018,1,2,71,Sub16_Trial71_0,0,2,2,-105.594164,True,3.228
16,0,19-May-2018,1,2,71,Sub16_Trial71_0,0,3,3,-92.67554,True,3.228
16,0,19-May-2018,1,2,71,Sub16_Trial71_0,0,4,4,-27.99427,True,3.228
16,0,19-May-2018,1,2,71,Sub16_Trial71_0,0,5,5,-6.57988,True,3.228
16,0,19-May-2018,1,2,71,Sub16_Trial71_0,0,6,6,-104.292997,True,3.228
16,0,19-May-2018,1,2,71,Sub16_Trial71_1,1,0,0,161.174065,False,3.228
16,0,19-May-2018,1,2,71,Sub16_Trial71_1,1,1,1,106.8505,False,3.228
16,0,19-May-2018,1,2,71,Sub16_Trial71_1,1,2,2,21.156527,False,3.228
16,0,19-May-2018,1,2,71,Sub16_Trial71_1,1,3,3,70.230526,False,3.228
16,0,19-May-2018,1,2,71,Sub16_Trial71_1,1,4,4,25.223278,False,3.228
16,0,19-May-2018,1,2,71,Sub16_Trial71_1,1,5,5,-157.93621,False,3.228
16,0,19-May-2018,1,2,71,Sub16_Trial71_1,1,6,6,-112.679765,False,3.228
16,0,19-May-2018,1,2,72,Sub16_Trial72_0,0,0,0,2.945921,False,1.47
16,0,19-May-2018,1,2,72,Sub16_Trial72_0,0,1,1,105.350803,False,1.47
16,0,19-May-2018,1,2,72,Sub16_Trial72_0,0,2,2,-49.220839,False,1.47
16,0,19-May-2018,1,2,72,Sub16_Trial72_0,0,3,3,-62.917426,False,1.47
16,0,19-May-2018,1,2,72,Sub16_Trial72_0,0,4,4,-27.0816,False,1.47
16,0,19-May-2018,1,2,72,Sub16_Trial72_0,0,5,5,28.775229,False,1.47
16,0,19-May-2018,1,2,72,Sub16_Trial72_0,0,6,6,-93.468467,False,1.47
16,0,19-May-2018,1,2,72,Sub16_Trial72_1,1,0,0,-117.359535,True,1.47
16,0,19-May-2018,1,2,72,Sub16_Trial72_1,1,1,1,-48.898954,True,1.47
16,0,19-May-2018,1,2,72,Sub16_Trial72_1,1,2,2,57.321898,True,1.47
16,0,19-May-2018,1,2,72,Sub16_Trial72_1,1,3,3,186.409197,True,1.47
16,0,19-May-2018,1,2,72,Sub16_Trial72_1,1,4,4,2.064928,True,1.47
16,0,19-May-2018,1,2,72,Sub16_Trial72_1,1,5,5,91.791843,True,1.47
16,0,19-May-2018,1,2,72,Sub16_Trial72_1,1,6,6,-131.508095,True,1.47
16,0,19-May-2018,1,2,73,Sub16_Trial73_0,0,0,0,-33.201275,False,0.713
16,0,19-May-2018,1,2,73,Sub16_Trial73_0,0,1,1,-2.854969,False,0.713
16,0,19-May-2018,1,2,73,Sub16_Trial73_0,0,2,2,-13.914891,False,0.713
16,0,19-May-2018,1,2,73,Sub16_Trial73_0,0,3,3,86.436651,False,0.713
16,0,19-May-2018,1,2,73,Sub16_Trial73_0,0,4,4,-16.208502,False,0.713
16,0,19-May-2018,1,2,73,Sub16_Trial73_0,0,5,5,-95.735347,False,0.713
16,0,19-May-2018,1,2,73,Sub16_Trial73_0,0,6,6,26.267388,False,0.713
16,0,19-May-2018,1,2,73,Sub16_Trial73_1,1,0,0,-66.631304,True,0.713
16,0,19-May-2018,1,2,73,Sub16_Trial73_1,1,1,1,-49.953256,True,0.713
16,0,19-May-2018,1,2,73,Sub16_Trial73_1,1,2,2,93.577821,True,0.713
16,0,19-May-2018,1,2,73,Sub16_Trial73_1,1,3,3,-11.864966,True,0.713
16,0,19-May-2018,1,2,73,Sub16_Trial73_1,1,4,4,26.374255,True,0.713
16,0,19-May-2018,1,2,73,Sub16_Trial73_1,1,5,5,129.817044,True,0.713
16,0,19-May-2018,1,2,73,Sub16_Trial73_1,1,6,6,20.092937,True,0.713
16,0,19-May-2018,1,2,74,Sub16_Trial74_0,0,0,0,-47.442215,False,1.196
16,0,19-May-2018,1,2,74,Sub16_Trial74_0,0,1,1,41.669647,False,1.196
16,0,19-May-2018,1,2,74,Sub16_Trial74_0,0,2,2,-170.339005,False,1.196
16,0,19-May-2018,1,2,74,Sub16_Trial74_0,0,3,3,-43.862597,False,1.196
16,0,19-May-2018,1,2,74,Sub16_Trial74_0,0,4,4,-44.464851,False,1.196
16,0,19-May-2018,1,2,74,Sub16_Trial74_0,0,5,5,-63.15218,False,1.196
16,0,19-May-2018,1,2,74,Sub16_Trial74_0,0,6,6,-157.309217,False,1.196
16,0,19-May-2018,1,2,74,Sub16_Trial74_1,1,0,0,-108.494217,True,1.196
16,0,19-May-2018,1,2,74,Sub16_Trial74_1,1,1,1,-6.209388,True,1.196
16,0,19-May-2018,1,2,74,Sub16_Trial74_1,1,2,2,93.26944,True,1.196
16,0,19-May-2018,1,2,74,Sub16_Trial74_1,1,3,3,42.1,True,1.196
16,0,19-May-2018,1,2,74,Sub16_Trial74_1,1,4,4,107.623549,True,1.196
16,0,19-May-2018,1,2,74,Sub16_Trial74_1,1,5,5,-15.416799,True,1.196
16,0,19-May-2018,1,2,74,Sub16_Trial74_1,1,6,6,-188.720602,True,1.196
16,0,19-May-2018,1,2,75,Sub16_Trial75_0,0,0,0,59.00145,False,0.521
16,0,19-May-2018,1,2,75,Sub16_Trial75_0,0,1,1,102.769583,False,0.521
16,0,19-May-2018,1,2,75,Sub16_Trial75_0,0,2,2,22.64683,False,0.521
16,0,19-May-2018,1,2,75,Sub16_Trial75_0,0,3,3,-96.769347,False,0.521
16,0,19-May-2018,1,2,75,Sub16_Trial75_0,0,4,4,-15.80696,False,0.521
16,0,19-May-2018,1,2,75,Sub16_Trial75_0,0,5,5,14.512094,False,0.521
16,0,19-May-2018,1,2,75,Sub16_Trial75_0,0,6,6,-106.627754,False,0.521
16,0,19-May-2018,1,2,75,Sub16_Trial75_1,1,0,0,-28.51086,True,0.521
16,0,19-May-2018,1,2,75,Sub16_Trial75_1,1,1,1,90.867173,True,0.521
16,0,19-May-2018,1,2,75,Sub16_Trial75_1,1,2,2,27.329185,True,0.521
16,0,19-May-2018,1,2,75,Sub16_Trial75_1,1,3,3,-53.92218,True,0.521
16,0,19-May-2018,1,2,75,Sub16_Trial75_1,1,4,4,64.634516,True,0.521
16,0,19-May-2018,1,2,75,Sub16_Trial75_1,1,5,5,164.300487,True,0.521
16,0,19-May-2018,1,2,75,Sub16_Trial75_1,1,6,6,41.516753,True,0.521
16,0,19-May-2018,1,2,76,Sub16_Trial76_0,0,0,0,116.743515,False,0.495
16,0,19-May-2018,1,2,76,Sub16_Trial76_0,0,1,1,24.471128,False,0.495
16,0,19-May-2018,1,2,76,Sub16_Trial76_0,0,2,2,41.340588,False,0.495
16,0,19-May-2018,1,2,76,Sub16_Trial76_0,0,3,3,4.638892,False,0.495
16,0,19-May-2018,1,2,76,Sub16_Trial76_0,0,4,4,-9.586516,False,0.495
16,0,19-May-2018,1,2,76,Sub16_Trial76_0,0,5,5,-5.359802,False,0.495
16,0,19-May-2018,1,2,76,Sub16_Trial76_0,0,6,6,-70.859319,False,0.495
16,0,19-May-2018,1,2,76,Sub16_Trial76_1,1,0,0,-93.914891,True,0.495
16,0,19-May-2018,1,2,76,Sub16_Trial76_1,1,1,1,-33.19807,True,0.495
16,0,19-May-2018,1,2,76,Sub16_Trial76_1,1,2,2,150.743732,True,0.495
16,0,19-May-2018,1,2,76,Sub16_Trial76_1,1,3,3,39.185497,True,0.495
16,0,19-May-2018,1,2,76,Sub16_Trial76_1,1,4,4,-2.982583,True,0.495
16,0,19-May-2018,1,2,76,Sub16_Trial76_1,1,5,5,42.771284,True,0.495
16,0,19-May-2018,1,2,76,Sub16_Trial76_1,1,6,6,23.172567,True,0.495
16,0,19-May-2018,1,2,77,Sub16_Trial77_0,0,0,0,-54.677585,False,1.057
16,0,19-May-2018,1,2,77,Sub16_Trial77_0,0,1,1,11.021013,False,1.057
16,0,19-May-2018,1,2,77,Sub16_Trial77_0,0,2,2,49.905656,False,1.057
16,0,19-May-2018,1,2,77,Sub16_Trial77_0,0,3,3,-102.935858,False,1.057
16,0,19-May-2018,1,2,77,Sub16_Trial77_0,0,4,4,-44.201368,False,1.057
16,0,19-May-2018,1,2,77,Sub16_Trial77_0,0,5,5,-54.298139,False,1.057
16,0,19-May-2018,1,2,77,Sub16_Trial77_0,0,6,6,-95.711951,False,1.057
16,0,19-May-2018,1,2,77,Sub16_Trial77_1,1,0,0,80.871017,True,1.057
16,0,19-May-2018,1,2,77,Sub16_Trial77_1,1,1,1,103.224675,True,1.057
16,0,19-May-2018,1,2,77,Sub16_Trial77_1,1,2,2,9.909186,True,1.057
16,0,19-May-2018,1,2,77,Sub16_Trial77_1,1,3,3,-55.457184,True,1.057
16,0,19-May-2018,1,2,77,Sub16_Trial77_1,1,4,4,31.304028,True,1.057
16,0,19-May-2018,1,2,77,Sub16_Trial77_1,1,5,5,18.195254,True,1.057
16,0,19-May-2018,1,2,77,Sub16_Trial77_1,1,6,6,-2.436746,True,1.057
16,0,19-May-2018,1,2,78,Sub16_Trial78_0,0,0,0,-54.134742,True,3.155
16,0,19-May-2018,1,2,78,Sub16_Trial78_0,0,1,1,39.806287,True,3.155
16,0,19-May-2018,1,2,78,Sub16_Trial78_0,0,2,2,-12.10692,True,3.155
16,0,19-May-2018,1,2,78,Sub16_Trial78_0,0,3,3,23.704986,True,3.155
16,0,19-May-2018,1,2,78,Sub16_Trial78_0,0,4,4,-0.031127,True,3.155
16,0,19-May-2018,1,2,78,Sub16_Trial78_0,0,5,5,-114.927654,True,3.155
16,0,19-May-2018,1,2,78,Sub16_Trial78_0,0,6,6,100.53423,True,3.155
16,0,19-May-2018,1,2,78,Sub16_Trial78_1,1,0,0,-42.922659,False,3.155
16,0,19-May-2018,1,2,78,Sub16_Trial78_1,1,1,1,13.84753,False,3.155
16,0,19-May-2018,1,2,78,Sub16_Trial78_1,1,2,2,141.446232,False,3.155
16,0,19-May-2018,1,2,78,Sub16_Trial78_1,1,3,3,-47.763819,False,3.155
16,0,19-May-2018,1,2,78,Sub16_Trial78_1,1,4,4,-13.907006,False,3.155
16,0,19-May-2018,1,2,78,Sub16_Trial78_1,1,5,5,-49.070726,False,3.155
16,0,19-May-2018,1,2,78,Sub16_Trial78_1,1,6,6,193.719576,False,3.155
16,0,19-May-2018,1,2,79,Sub16_Trial79_0,0,0,0,85.315043,True,2.491
16,0,19-May-2018,1,2,79,Sub16_Trial79_0,0,1,1,73.76788,True,2.491
16,0,19-May-2018,1,2,79,Sub16_Trial79_0,0,2,2,21.591718,True,2.491
16,0,19-May-2018,1,2,79,Sub16_Trial79_0,0,3,3,194.812394,True,2.491
16,0,19-May-2018,1,2,79,Sub16_Trial79_0,0,4,4,-53.55788,True,2.491
16,0,19-May-2018,1,2,79,Sub16_Trial79_0,0,5,5,127.897567,True,2.491
16,0,19-May-2018,1,2,79,Sub16_Trial79_0,0,6,6,-51.155161,True,2.491
16,0,19-May-2018,1,2,79,Sub16_Trial79_1,1,0,0,-26.942482,False,2.491
16,0,19-May-2018,1,2,79,Sub16_Trial79_1,1,1,1,-46.268268,False,2.491
16,0,19-May-2018,1,2,79,Sub16_Trial79_1,1,2,2,-101.199842,False,2.491
16,0,19-May-2018,1,2,79,Sub16_Trial79_1,1,3,3,29.521136,False,2.491
16,0,19-May-2018,1,2,79,Sub16_Trial79_1,1,4,4,5.275827,False,2.491
16,0,19-May-2018,1,2,79,Sub16_Trial79_1,1,5,5,-19.098834,False,2.491
16,0,19-May-2018,1,2,79,Sub16_Trial79_1,1,6,6,183.304725,False,2.491
16,0,19-May-2018,1,2,80,Sub16_Trial80_0,0,0,0,-143.204224,True,1.874
16,0,19-May-2018,1,2,80,Sub16_Trial80_0,0,1,1,-52.269492,True,1.874
16,0,19-May-2018,1,2,80,Sub16_Trial80_0,0,2,2,60.607875,True,1.874
16,0,19-May-2018,1,2,80,Sub16_Trial80_0,0,3,3,-85.167897,True,1.874
16,0,19-May-2018,1,2,80,Sub16_Trial80_0,0,4,4,68.592259,True,1.874
16,0,19-May-2018,1,2,80,Sub16_Trial80_0,0,5,5,43.432646,True,1.874
16,0,19-May-2018,1,2,80,Sub16_Trial80_0,0,6,6,-97.219517,True,1.874
16,0,19-May-2018,1,2,80,Sub16_Trial80_1,1,0,0,-153.552381,False,1.874
16,0,19-May-2018,1,2,80,Sub16_Trial80_1,1,1,1,54.685626,False,1.874
16,0,19-May-2018,1,2,80,Sub16_Trial80_1,1,2,2,18.325609,False,1.874
16,0,19-May-2018,1,2,80,Sub16_Trial80_1,1,3,3,70.554591,False,1.874
16,0,19-May-2018,1,2,80,Sub16_Trial80_1,1,4,4,65.385345,False,1.874
16,0,19-May-2018,1,2,80,Sub16_Trial80_1,1,5,5,-36.286535,False,1.874
16,0,19-May-2018,1,2,80,Sub16_Trial80_1,1,6,6,99.117439,False,1.874
16,0,19-May-2018,1,2,81,Sub16_Trial81_0,0,0,0,68.172904,True,2.198
16,0,19-May-2018,1,2,81,Sub16_Trial81_0,0,1,1,50.652744,True,2.198
16,0,19-May-2018,1,2,81,Sub16_Trial81_0,0,2,2,-26.494341,True,2.198
16,0,19-May-2018,1,2,81,Sub16_Trial81_0,0,3,3,-148.393681,True,2.198
16,0,19-May-2018,1,2,81,Sub16_Trial81_0,0,4,4,65.029431,True,2.198
16,0,19-May-2018,1,2,81,Sub16_Trial81_0,0,5,5,-13.149221,True,2.198
16,0,19-May-2018,1,2,81,Sub16_Trial81_0,0,6,6,98.84451,True,2.198
16,0,19-May-2018,1,2,81,Sub16_Trial81_1,1,0,0,-34.26292,False,2.198
16,0,19-May-2018,1,2,81,Sub16_Trial81_1,1,1,1,39.89155,False,2.198
16,0,19-May-2018,1,2,81,Sub16_Trial81_1,1,2,2,33.492937,False,2.198
16,0,19-May-2018,1,2,81,Sub16_Trial81_1,1,3,3,-41.832653,False,2.198
16,0,19-May-2018,1,2,81,Sub16_Trial81_1,1,4,4,-163.444024,False,2.198
16,0,19-May-2018,1,2,81,Sub16_Trial81_1,1,5,5,-145.745643,False,2.198
16,0,19-May-2018,1,2,81,Sub16_Trial81_1,1,6,6,44.748444,False,2.198
16,0,19-May-2018,1,2,82,Sub16_Trial82_0,0,0,0,26.734498,False,3.393
16,0,19-May-2018,1,2,82,Sub16_Trial82_0,0,1,1,-60.359805,False,3.393
16,0,19-May-2018,1,2,82,Sub16_Trial82_0,0,2,2,-141.410725,False,3.393
16,0,19-May-2018,1,2,82,Sub16_Trial82_0,0,3,3,22.606825,False,3.393
16,0,19-May-2018,1,2,82,Sub16_Trial82_0,0,4,4,-3.100417,False,3.393
16,0,19-May-2018,1,2,82,Sub16_Trial82_0,0,5,5,-173.297707,False,3.393
16,0,19-May-2018,1,2,82,Sub16_Trial82_0,0,6,6,-33.578021,False,3.393
16,0,19-May-2018,1,2,82,Sub16_Trial82_1,1,0,0,153.197214,True,3.393
16,0,19-May-2018,1,2,82,Sub16_Trial82_1,1,1,1,-72.029643,True,3.393
16,0,19-May-2018,1,2,82,Sub16_Trial82_1,1,2,2,-85.062485,True,3.393
16,0,19-May-2018,1,2,82,Sub16_Trial82_1,1,3,3,-23.242565,True,3.393
16,0,19-May-2018,1,2,82,Sub16_Trial82_1,1,4,4,25.222774,True,3.393
16,0,19-May-2018,1,2,82,Sub16_Trial82_1,1,5,5,-82.927162,True,3.393
16,0,19-May-2018,1,2,82,Sub16_Trial82_1,1,6,6,-27.92979,True,3.393
16,0,19-May-2018,1,2,83,Sub16_Trial83_0,0,0,0,-38.634258,True,1.556
16,0,19-May-2018,1,2,83,Sub16_Trial83_0,0,1,1,-35.632811,True,1.556
16,0,19-May-2018,1,2,83,Sub16_Trial83_0,0,2,2,10.888807,True,1.556
16,0,19-May-2018,1,2,83,Sub16_Trial83_0,0,3,3,18.841466,True,1.556
16,0,19-May-2018,1,2,83,Sub16_Trial83_0,0,4,4,83.205442,True,1.556
16,0,19-May-2018,1,2,83,Sub16_Trial83_0,0,5,5,-80.951676,True,1.556
16,0,19-May-2018,1,2,83,Sub16_Trial83_0,0,6,6,-147.314232,True,1.556
16,0,19-May-2018,1,2,83,Sub16_Trial83_1,1,0,0,3.560925,False,1.556
16,0,19-May-2018,1,2,83,Sub16_Trial83_1,1,1,1,-64.760367,False,1.556
16,0,19-May-2018,1,2,83,Sub16_Trial83_1,1,2,2,166.035766,False,1.556
16,0,19-May-2018,1,2,83,Sub16_Trial83_1,1,3,3,51.239627,False,1.556
16,0,19-May-2018,1,2,83,Sub16_Trial83_1,1,4,4,-27.003852,False,1.556
16,0,19-May-2018,1,2,83,Sub16_Trial83_1,1,5,5,-2.625114,False,1.556
16,0,19-May-2018,1,2,83,Sub16_Trial83_1,1,6,6,84.079825,False,1.556
16,0,19-May-2018,1,2,84,Sub16_Trial84_0,0,0,0,177.281967,True,0.702
16,0,19-May-2018,1,2,84,Sub16_Trial84_0,0,1,1,-57.561866,True,0.702
16,0,19-May-2018,1,2,84,Sub16_Trial84_0,0,2,2,24.851561,True,0.702
16,0,19-May-2018,1,2,84,Sub16_Trial84_0,0,3,3,139.307672,True,0.702
16,0,19-May-2018,1,2,84,Sub16_Trial84_0,0,4,4,72.125213,True,0.702
16,0,19-May-2018,1,2,84,Sub16_Trial84_0,0,5,5,81.572503,True,0.702
16,0,19-May-2018,1,2,84,Sub16_Trial84_0,0,6,6,18.33675,True,0.702
16,0,19-May-2018,1,2,84,Sub16_Trial84_1,1,0,0,-77.224599,False,0.702
16,0,19-May-2018,1,2,84,Sub16_Trial84_1,1,1,1,69.16879,False,0.702
16,0,19-May-2018,1,2,84,Sub16_Trial84_1,1,2,2,17.178678,False,0.702
16,0,19-May-2018,1,2,84,Sub16_Trial84_1,1,3,3,9.490953,False,0.702
16,0,19-May-2018,1,2,84,Sub16_Trial84_1,1,4,4,-155.951556,False,0.702
16,0,19-May-2018,1,2,84,Sub16_Trial84_1,1,5,5,29.302486,False,0.702
16,0,19-May-2018,1,2,84,Sub16_Trial84_1,1,6,6,-70.684785,False,0.702
16,0,19-May-2018,1,2,85,Sub16_Trial85_0,0,0,0,147.431804,False,0.666
16,0,19-May-2018,1,2,85,Sub16_Trial85_0,0,1,1,-27.165929,False,0.666
16,0,19-May-2018,1,2,85,Sub16_Trial85_0,0,2,2,22.967548,False,0.666
16,0,19-May-2018,1,2,85,Sub16_Trial85_0,0,3,3,-52.71624,False,0.666
16,0,19-May-2018,1,2,85,Sub16_Trial85_0,0,4,4,-147.608123,False,0.666
16,0,19-May-2018,1,2,85,Sub16_Trial85_0,0,5,5,-147.792903,False,0.666
16,0,19-May-2018,1,2,85,Sub16_Trial85_0,0,6,6,178.691693,False,0.666
16,0,19-May-2018,1,2,85,Sub16_Trial85_1,1,0,0,40.962948,True,0.666
16,0,19-May-2018,1,2,85,Sub16_Trial85_1,1,1,1,-38.488883,True,0.666
16,0,19-May-2018,1,2,85,Sub16_Trial85_1,1,2,2,-118.976027,True,0.666
16,0,19-May-2018,1,2,85,Sub16_Trial85_1,1,3,3,58.58588,True,0.666
16,0,19-May-2018,1,2,85,Sub16_Trial85_1,1,4,4,40.511476,True,0.666
16,0,19-May-2018,1,2,85,Sub16_Trial85_1,1,5,5,28.362267,True,0.666
16,0,19-May-2018,1,2,85,Sub16_Trial85_1,1,6,6,-21.024642,True,0.666
16,0,19-May-2018,1,2,86,Sub16_Trial86_0,0,0,0,-61.937073,False,2.604
16,0,19-May-2018,1,2,86,Sub16_Trial86_0,0,1,1,-3.121929,False,2.604
16,0,19-May-2018,1,2,86,Sub16_Trial86_0,0,2,2,-85.049585,False,2.604
16,0,19-May-2018,1,2,86,Sub16_Trial86_0,0,3,3,68.904528,False,2.604
16,0,19-May-2018,1,2,86,Sub16_Trial86_0,0,4,4,-85.184189,False,2.604
16,0,19-May-2018,1,2,86,Sub16_Trial86_0,0,5,5,-123.33278,False,2.604
16,0,19-May-2018,1,2,86,Sub16_Trial86_0,0,6,6,-46.851144,False,2.604
16,0,19-May-2018,1,2,86,Sub16_Trial86_1,1,0,0,-66.705597,True,2.604
16,0,19-May-2018,1,2,86,Sub16_Trial86_1,1,1,1,-118.886418,True,2.604
16,0,19-May-2018,1,2,86,Sub16_Trial86_1,1,2,2,61.021716,True,2.604
16,0,19-May-2018,1,2,86,Sub16_Trial86_1,1,3,3,-123.330281,True,2.604
16,0,19-May-2018,1,2,86,Sub16_Trial86_1,1,4,4,-157.895933,True,2.604
16,0,19-May-2018,1,2,86,Sub16_Trial86_1,1,5,5,5.663152,True,2.604
16,0,19-May-2018,1,2,86,Sub16_Trial86_1,1,6,6,59.028801,True,2.604
16,0,19-May-2018,1,2,87,Sub16_Trial87_0,0,0,0,-32.249724,False,3.638
16,0,19-May-2018,1,2,87,Sub16_Trial87_0,0,1,1,-56.6721,False,3.638
16,0,19-May-2018,1,2,87,Sub16_Trial87_0,0,2,2,-17.156562,False,3.638
16,0,19-May-2018,1,2,87,Sub16_Trial87_0,0,3,3,115.133152,False,3.638
16,0,19-May-2018,1,2,87,Sub16_Trial87_0,0,4,4,75.569662,False,3.638
16,0,19-May-2018,1,2,87,Sub16_Trial87_0,0,5,5,-8.493117,False,3.638
16,0,19-May-2018,1,2,87,Sub16_Trial87_0,0,6,6,34.276537,False,3.638
16,0,19-May-2018,1,2,87,Sub16_Trial87_1,1,0,0,4.410312,True,3.638
16,0,19-May-2018,1,2,87,Sub16_Trial87_1,1,1,1,12.889985,True,3.638
16,0,19-May-2018,1,2,87,Sub16_Trial87_1,1,2,2,-158.411205,True,3.638
16,0,19-May-2018,1,2,87,Sub16_Trial87_1,1,3,3,29.296292,True,3.638
16,0,19-May-2018,1,2,87,Sub16_Trial87_1,1,4,4,88.626677,True,3.638
16,0,19-May-2018,1,2,87,Sub16_Trial87_1,1,5,5,58.120658,True,3.638
16,0,19-May-2018,1,2,87,Sub16_Trial87_1,1,6,6,25.38339,True,3.638
16,0,19-May-2018,1,2,88,Sub16_Trial88_0,0,0,0,83.360519,False,0.994
16,0,19-May-2018,1,2,88,Sub16_Trial88_0,0,1,1,-17.319709,False,0.994
16,0,19-May-2018,1,2,88,Sub16_Trial88_0,0,2,2,-12.655918,False,0.994
16,0,19-May-2018,1,2,88,Sub16_Trial88_0,0,3,3,-63.806077,False,0.994
16,0,19-May-2018,1,2,88,Sub16_Trial88_0,0,4,4,22.828968,False,0.994
16,0,19-May-2018,1,2,88,Sub16_Trial88_0,0,5,5,36.653412,False,0.994
16,0,19-May-2018,1,2,88,Sub16_Trial88_0,0,6,6,27.005286,False,0.994
16,0,19-May-2018,1,2,88,Sub16_Trial88_1,1,0,0,126.465552,True,0.994
16,0,19-May-2018,1,2,88,Sub16_Trial88_1,1,1,1,60.611933,True,0.994
16,0,19-May-2018,1,2,88,Sub16_Trial88_1,1,2,2,-24.295597,True,0.994
16,0,19-May-2018,1,2,88,Sub16_Trial88_1,1,3,3,-11.955112,True,0.994
16,0,19-May-2018,1,2,88,Sub16_Trial88_1,1,4,4,-194.436217,True,0.994
16,0,19-May-2018,1,2,88,Sub16_Trial88_1,1,5,5,138.658446,True,0.994
16,0,19-May-2018,1,2,88,Sub16_Trial88_1,1,6,6,40.468184,True,0.994
16,0,19-May-2018,1,2,89,Sub16_Trial89_0,0,0,0,75.511784,False,0.656
16,0,19-May-2018,1,2,89,Sub16_Trial89_0,0,1,1,3.463797,False,0.656
16,0,19-May-2018,1,2,89,Sub16_Trial89_0,0,2,2,59.720377,False,0.656
16,0,19-May-2018,1,2,89,Sub16_Trial89_0,0,3,3,-57.912891,False,0.656
16,0,19-May-2018,1,2,89,Sub16_Trial89_0,0,4,4,-74.235001,False,0.656
16,0,19-May-2018,1,2,89,Sub16_Trial89_0,0,5,5,-66.388438,False,0.656
16,0,19-May-2018,1,2,89,Sub16_Trial89_0,0,6,6,112.196765,False,0.656
16,0,19-May-2018,1,2,89,Sub16_Trial89_1,1,0,0,27.144888,True,0.656
16,0,19-May-2018,1,2,89,Sub16_Trial89_1,1,1,1,85.314497,True,0.656
16,0,19-May-2018,1,2,89,Sub16_Trial89_1,1,2,2,140.956477,True,0.656
16,0,19-May-2018,1,2,89,Sub16_Trial89_1,1,3,3,15.956754,True,0.656
16,0,19-May-2018,1,2,89,Sub16_Trial89_1,1,4,4,-22.758667,True,0.656
16,0,19-May-2018,1,2,89,Sub16_Trial89_1,1,5,5,34.93686,True,0.656
16,0,19-May-2018,1,2,89,Sub16_Trial89_1,1,6,6,-11.042389,True,0.656
16,0,19-May-2018,1,2,90,Sub16_Trial90_0,0,0,0,-75.01627,True,4.707
16,0,19-May-2018,1,2,90,Sub16_Trial90_0,0,1,1,46.974632,True,4.707
16,0,19-May-2018,1,2,90,Sub16_Trial90_0,0,2,2,-25.000535,True,4.707
16,0,19-May-2018,1,2,90,Sub16_Trial90_0,0,3,3,21.232902,True,4.707
16,0,19-May-2018,1,2,90,Sub16_Trial90_0,0,4,4,-39.804158,True,4.707
16,0,19-May-2018,1,2,90,Sub16_Trial90_0,0,5,5,106.267651,True,4.707
16,0,19-May-2018,1,2,90,Sub16_Trial90_0,0,6,6,-179.568068,True,4.707
16,0,19-May-2018,1,2,90,Sub16_Trial90_1,1,0,0,60.298836,False,4.707
16,0,19-May-2018,1,2,90,Sub16_Trial90_1,1,1,1,-48.609947,False,4.707
16,0,19-May-2018,1,2,90,Sub16_Trial90_1,1,2,2,-132.751428,False,4.707
16,0,19-May-2018,1,2,90,Sub16_Trial90_1,1,3,3,96.354508,False,4.707
16,0,19-May-2018,1,2,90,Sub16_Trial90_1,1,4,4,-22.424632,False,4.707
16,0,19-May-2018,1,2,90,Sub16_Trial90_1,1,5,5,-27.337473,False,4.707
16,0,19-May-2018,1,2,90,Sub16_Trial90_1,1,6,6,112.317991,False,4.707
16,0,19-May-2018,1,2,91,Sub16_Trial91_0,0,0,0,-59.058374,False,0.511
16,0,19-May-2018,1,2,91,Sub16_Trial91_0,0,1,1,38.142231,False,0.511
16,0,19-May-2018,1,2,91,Sub16_Trial91_0,0,2,2,76.266898,False,0.511
16,0,19-May-2018,1,2,91,Sub16_Trial91_0,0,3,3,7.742824,False,0.511
16,0,19-May-2018,1,2,91,Sub16_Trial91_0,0,4,4,-19.147293,False,0.511
16,0,19-May-2018,1,2,91,Sub16_Trial91_0,0,5,5,-4.577431,False,0.511
16,0,19-May-2018,1,2,91,Sub16_Trial91_0,0,6,6,-48.780841,False,0.511
16,0,19-May-2018,1,2,91,Sub16_Trial91_1,1,0,0,52.679265,True,0.511
16,0,19-May-2018,1,2,91,Sub16_Trial91_1,1,1,1,138.002493,True,0.511
16,0,19-May-2018,1,2,91,Sub16_Trial91_1,1,2,2,-56.793452,True,0.511
16,0,19-May-2018,1,2,91,Sub16_Trial91_1,1,3,3,66.846976,True,0.511
16,0,19-May-2018,1,2,91,Sub16_Trial91_1,1,4,4,80.326816,True,0.511
16,0,19-May-2018,1,2,91,Sub16_Trial91_1,1,5,5,55.719932,True,0.511
16,0,19-May-2018,1,2,91,Sub16_Trial91_1,1,6,6,47.880682,True,0.511
16,0,19-May-2018,1,2,92,Sub16_Trial92_0,0,0,0,-5.75126,True,1.1
16,0,19-May-2018,1,2,92,Sub16_Trial92_0,0,1,1,-52.255509,True,1.1
16,0,19-May-2018,1,2,92,Sub16_Trial92_0,0,2,2,-26.780685,True,1.1
16,0,19-May-2018,1,2,92,Sub16_Trial92_0,0,3,3,-145.941113,True,1.1
16,0,19-May-2018,1,2,92,Sub16_Trial92_0,0,4,4,100.796876,True,1.1
16,0,19-May-2018,1,2,92,Sub16_Trial92_0,0,5,5,111.451507,True,1.1
16,0,19-May-2018,1,2,92,Sub16_Trial92_0,0,6,6,104.487044,True,1.1
16,0,19-May-2018,1,2,92,Sub16_Trial92_1,1,0,0,97.938023,False,1.1
16,0,19-May-2018,1,2,92,Sub16_Trial92_1,1,1,1,88.513385,False,1.1
16,0,19-May-2018,1,2,92,Sub16_Trial92_1,1,2,2,-41.72618,False,1.1
16,0,19-May-2018,1,2,92,Sub16_Trial92_1,1,3,3,111.008508,False,1.1
16,0,19-May-2018,1,2,92,Sub16_Trial92_1,1,4,4,85.142777,False,1.1
16,0,19-May-2018,1,2,92,Sub16_Trial92_1,1,5,5,-38.617911,False,1.1
16,0,19-May-2018,1,2,92,Sub16_Trial92_1,1,6,6,-38.095865,False,1.1
16,0,19-May-2018,1,2,93,Sub16_Trial93_0,0,0,0,-22.916749,True,0.675
16,0,19-May-2018,1,2,93,Sub16_Trial93_0,0,1,1,57.523172,True,0.675
16,0,19-May-2018,1,2,93,Sub16_Trial93_0,0,2,2,28.978877,True,0.675
16,0,19-May-2018,1,2,93,Sub16_Trial93_0,0,3,3,-94.059931,True,0.675
16,0,19-May-2018,1,2,93,Sub16_Trial93_0,0,4,4,-42.347811,True,0.675
16,0,19-May-2018,1,2,93,Sub16_Trial93_0,0,5,5,48.118436,True,0.675
16,0,19-May-2018,1,2,93,Sub16_Trial93_0,0,6,6,50.255551,True,0.675
16,0,19-May-2018,1,2,93,Sub16_Trial93_1,1,0,0,-52.981784,False,0.675
16,0,19-May-2018,1,2,93,Sub16_Trial93_1,1,1,1,-88.272519,False,0.675
16,0,19-May-2018,1,2,93,Sub16_Trial93_1,1,2,2,42.195553,False,0.675
16,0,19-May-2018,1,2,93,Sub16_Trial93_1,1,3,3,72.724748,False,0.675
16,0,19-May-2018,1,2,93,Sub16_Trial93_1,1,4,4,50.14971,False,0.675
16,0,19-May-2018,1,2,93,Sub16_Trial93_1,1,5,5,-105.721479,False,0.675
16,0,19-May-2018,1,2,93,Sub16_Trial93_1,1,6,6,-5.154871,False,0.675
16,0,19-May-2018,1,2,94,Sub16_Trial94_0,0,0,0,-132.370128,False,0.466
16,0,19-May-2018,1,2,94,Sub16_Trial94_0,0,1,1,-178.142931,False,0.466
16,0,19-May-2018,1,2,94,Sub16_Trial94_0,0,2,2,49.234729,False,0.466
16,0,19-May-2018,1,2,94,Sub16_Trial94_0,0,3,3,-30.315356,False,0.466
16,0,19-May-2018,1,2,94,Sub16_Trial94_0,0,4,4,-39.49203,False,0.466
16,0,19-May-2018,1,2,94,Sub16_Trial94_0,0,5,5,-21.26044,False,0.466
16,0,19-May-2018,1,2,94,Sub16_Trial94_0,0,6,6,144.175253,False,0.466
16,0,19-May-2018,1,2,94,Sub16_Trial94_1,1,0,0,-48.134311,True,0.466
16,0,19-May-2018,1,2,94,Sub16_Trial94_1,1,1,1,-120.486248,True,0.466
16,0,19-May-2018,1,2,94,Sub16_Trial94_1,1,2,2,36.256762,True,0.466
16,0,19-May-2018,1,2,94,Sub16_Trial94_1,1,3,3,-36.437456,True,0.466
16,0,19-May-2018,1,2,94,Sub16_Trial94_1,1,4,4,125.178567,True,0.466
16,0,19-May-2018,1,2,94,Sub16_Trial94_1,1,5,5,144.00849,True,0.466
16,0,19-May-2018,1,2,94,Sub16_Trial94_1,1,6,6,-21.950587,True,0.466
16,0,19-May-2018,1,2,95,Sub16_Trial95_0,0,0,0,11.391898,False,1.064
16,0,19-May-2018,1,2,95,Sub16_Trial95_0,0,1,1,9.576403,False,1.064
16,0,19-May-2018,1,2,95,Sub16_Trial95_0,0,2,2,-96.906093,False,1.064
16,0,19-May-2018,1,2,95,Sub16_Trial95_0,0,3,3,166.482189,False,1.064
16,0,19-May-2018,1,2,95,Sub16_Trial95_0,0,4,4,74.957294,False,1.064
16,0,19-May-2018,1,2,95,Sub16_Trial95_0,0,5,5,-10.235934,False,1.064
16,0,19-May-2018,1,2,95,Sub16_Trial95_0,0,6,6,-16.474535,False,1.064
16,0,19-May-2018,1,2,95,Sub16_Trial95_1,1,0,0,-50.018661,True,1.064
16,0,19-May-2018,1,2,95,Sub16_Trial95_1,1,1,1,-10.873838,True,1.064
16,0,19-May-2018,1,2,95,Sub16_Trial95_1,1,2,2,3.188404,True,1.064
16,0,19-May-2018,1,2,95,Sub16_Trial95_1,1,3,3,10.514342,True,1.064
16,0,19-May-2018,1,2,95,Sub16_Trial95_1,1,4,4,78.033777,True,1.064
16,0,19-May-2018,1,2,95,Sub16_Trial95_1,1,5,5,51.158793,True,1.064
16,0,19-May-2018,1,2,95,Sub16_Trial95_1,1,6,6,-18.109094,True,1.064
16,0,19-May-2018,1,2,96,Sub16_Trial96_0,0,0,0,-82.553787,False,0.911
16,0,19-May-2018,1,2,96,Sub16_Trial96_0,0,1,1,88.093416,False,0.911
16,0,19-May-2018,1,2,96,Sub16_Trial96_0,0,2,2,192.490167,False,0.911
16,0,19-May-2018,1,2,96,Sub16_Trial96_0,0,3,3,-147.874305,False,0.911
16,0,19-May-2018,1,2,96,Sub16_Trial96_0,0,4,4,113.587448,False,0.911
16,0,19-May-2018,1,2,96,Sub16_Trial96_0,0,5,5,147.506674,False,0.911
16,0,19-May-2018,1,2,96,Sub16_Trial96_0,0,6,6,-181.464036,False,0.911
16,0,19-May-2018,1,2,96,Sub16_Trial96_1,1,0,0,-76.271489,True,0.911
16,0,19-May-2018,1,2,96,Sub16_Trial96_1,1,1,1,24.40554,True,0.911
16,0,19-May-2018,1,2,96,Sub16_Trial96_1,1,2,2,49.753452,True,0.911
16,0,19-May-2018,1,2,96,Sub16_Trial96_1,1,3,3,-57.840695,True,0.911
16,0,19-May-2018,1,2,96,Sub16_Trial96_1,1,4,4,65.048632,True,0.911
16,0,19-May-2018,1,2,96,Sub16_Trial96_1,1,5,5,31.549712,True,0.911
16,0,19-May-2018,1,2,96,Sub16_Trial96_1,1,6,6,-45.808188,True,0.911
16,0,19-May-2018,1,2,97,Sub16_Trial97_0,0,0,0,-124.033124,False,0.882
16,0,19-May-2018,1,2,97,Sub16_Trial97_0,0,1,1,-73.832697,False,0.882
16,0,19-May-2018,1,2,97,Sub16_Trial97_0,0,2,2,-82.739866,False,0.882
16,0,19-May-2018,1,2,97,Sub16_Trial97_0,0,3,3,116.454128,False,0.882
16,0,19-May-2018,1,2,97,Sub16_Trial97_0,0,4,4,-35.358241,False,0.882
16,0,19-May-2018,1,2,97,Sub16_Trial97_0,0,5,5,55.144391,False,0.882
16,0,19-May-2018,1,2,97,Sub16_Trial97_0,0,6,6,-125.944823,False,0.882
16,0,19-May-2018,1,2,97,Sub16_Trial97_1,1,0,0,96.872882,True,0.882
16,0,19-May-2018,1,2,97,Sub16_Trial97_1,1,1,1,-95.380231,True,0.882
16,0,19-May-2018,1,2,97,Sub16_Trial97_1,1,2,2,-78.677799,True,0.882
16,0,19-May-2018,1,2,97,Sub16_Trial97_1,1,3,3,75.432057,True,0.882
16,0,19-May-2018,1,2,97,Sub16_Trial97_1,1,4,4,-184.161623,True,0.882
16,0,19-May-2018,1,2,97,Sub16_Trial97_1,1,5,5,67.769573,True,0.882
16,0,19-May-2018,1,2,97,Sub16_Trial97_1,1,6,6,105.294044,True,0.882
16,0,19-May-2018,1,2,98,Sub16_Trial98_0,0,0,0,29.2835,False,0.688
16,0,19-May-2018,1,2,98,Sub16_Trial98_0,0,1,1,-55.779473,False,0.688
16,0,19-May-2018,1,2,98,Sub16_Trial98_0,0,2,2,-65.483157,False,0.688
16,0,19-May-2018,1,2,98,Sub16_Trial98_0,0,3,3,-7.265068,False,0.688
16,0,19-May-2018,1,2,98,Sub16_Trial98_0,0,4,4,18.710827,False,0.688
16,0,19-May-2018,1,2,98,Sub16_Trial98_0,0,5,5,-64.88376,False,0.688
16,0,19-May-2018,1,2,98,Sub16_Trial98_0,0,6,6,-183.770794,False,0.688
16,0,19-May-2018,1,2,98,Sub16_Trial98_1,1,0,0,43.946274,True,0.688
16,0,19-May-2018,1,2,98,Sub16_Trial98_1,1,1,1,-65.056128,True,0.688
16,0,19-May-2018,1,2,98,Sub16_Trial98_1,1,2,2,-57.544604,True,0.688
16,0,19-May-2018,1,2,98,Sub16_Trial98_1,1,3,3,46.423507,True,0.688
16,0,19-May-2018,1,2,98,Sub16_Trial98_1,1,4,4,-4.376849,True,0.688
16,0,19-May-2018,1,2,98,Sub16_Trial98_1,1,5,5,60.448973,True,0.688
16,0,19-May-2018,1,2,98,Sub16_Trial98_1,1,6,6,76.987273,True,0.688
16,0,19-May-2018,1,2,99,Sub16_Trial99_0,0,0,0,60.428376,True,1.129
16,0,19-May-2018,1,2,99,Sub16_Trial99_0,0,1,1,-83.570504,True,1.129
16,0,19-May-2018,1,2,99,Sub16_Trial99_0,0,2,2,57.792197,True,1.129
16,0,19-May-2018,1,2,99,Sub16_Trial99_0,0,3,3,87.730996,True,1.129
16,0,19-May-2018,1,2,99,Sub16_Trial99_0,0,4,4,68.981519,True,1.129
16,0,19-May-2018,1,2,99,Sub16_Trial99_0,0,5,5,-15.429376,True,1.129
16,0,19-May-2018,1,2,99,Sub16_Trial99_0,0,6,6,64.576779,True,1.129
16,0,19-May-2018,1,2,99,Sub16_Trial99_1,1,0,0,-9.391417,False,1.129
16,0,19-May-2018,1,2,99,Sub16_Trial99_1,1,1,1,50.087869,False,1.129
16,0,19-May-2018,1,2,99,Sub16_Trial99_1,1,2,2,-90.85392,False,1.129
16,0,19-May-2018,1,2,99,Sub16_Trial99_1,1,3,3,28.717484,False,1.129
16,0,19-May-2018,1,2,99,Sub16_Trial99_1,1,4,4,-74.43246,False,1.129
16,0,19-May-2018,1,2,99,Sub16_Trial99_1,1,5,5,12.309507,False,1.129
16,0,19-May-2018,1,2,99,Sub16_Trial99_1,1,6,6,53.431001,False,1.129
16,0,19-May-2018,1,2,100,Sub16_Trial100_0,0,0,0,41.5583,True,1.897
16,0,19-May-2018,1,2,100,Sub16_Trial100_0,0,1,1,-123.198115,True,1.897
16,0,19-May-2018,1,2,100,Sub16_Trial100_0,0,2,2,-129.471294,True,1.897
16,0,19-May-2018,1,2,100,Sub16_Trial100_0,0,3,3,-166.835876,True,1.897
16,0,19-May-2018,1,2,100,Sub16_Trial100_0,0,4,4,-96.175893,True,1.897
16,0,19-May-2018,1,2,100,Sub16_Trial100_0,0,5,5,-72.770261,True,1.897
16,0,19-May-2018,1,2,100,Sub16_Trial100_0,0,6,6,-1.35008,True,1.897
16,0,19-May-2018,1,2,100,Sub16_Trial100_1,1,0,0,-6.73577,False,1.897
16,0,19-May-2018,1,2,100,Sub16_Trial100_1,1,1,1,89.020855,False,1.897
16,0,19-May-2018,1,2,100,Sub16_Trial100_1,1,2,2,79.460717,False,1.897
16,0,19-May-2018,1,2,100,Sub16_Trial100_1,1,3,3,89.340872,False,1.897
16,0,19-May-2018,1,2,100,Sub16_Trial100_1,1,4,4,-108.196821,False,1.897
16,0,19-May-2018,1,2,100,Sub16_Trial100_1,1,5,5,-60.829754,False,1.897
16,0,19-May-2018,1,2,100,Sub16_Trial100_1,1,6,6,-86.547596,False,1.897
16,0,19-May-2018,1,3,101,Sub16_Trial101_0,0,0,0,24.625714,False,2.754
16,0,19-May-2018,1,3,101,Sub16_Trial101_0,0,1,1,64.028677,False,2.754
16,0,19-May-2018,1,3,101,Sub16_Trial101_0,0,2,2,39.401795,False,2.754
16,0,19-May-2018,1,3,101,Sub16_Trial101_0,0,3,3,-79.400791,False,2.754
16,0,19-May-2018,1,3,101,Sub16_Trial101_0,0,4,4,140.763475,False,2.754
16,0,19-May-2018,1,3,101,Sub16_Trial101_0,0,5,5,78.76666,False,2.754
16,0,19-May-2018,1,3,101,Sub16_Trial101_0,0,6,6,11.943803,False,2.754
16,0,19-May-2018,1,3,101,Sub16_Trial101_1,1,0,0,71.510085,True,2.754
16,0,19-May-2018,1,3,101,Sub16_Trial101_1,1,1,1,-48.446934,True,2.754
16,0,19-May-2018,1,3,101,Sub16_Trial101_1,1,2,2,51.930134,True,2.754
16,0,19-May-2018,1,3,101,Sub16_Trial101_1,1,3,3,-86.424044,True,2.754
16,0,19-May-2018,1,3,101,Sub16_Trial101_1,1,4,4,157.549075,True,2.754
16,0,19-May-2018,1,3,101,Sub16_Trial101_1,1,5,5,178.57244,True,2.754
16,0,19-May-2018,1,3,101,Sub16_Trial101_1,1,6,6,-131.405526,True,2.754
16,0,19-May-2018,1,3,102,Sub16_Trial102_0,0,0,0,159.578805,False,0.624
16,0,19-May-2018,1,3,102,Sub16_Trial102_0,0,1,1,62.428034,False,0.624
16,0,19-May-2018,1,3,102,Sub16_Trial102_0,0,2,2,-65.55173,False,0.624
16,0,19-May-2018,1,3,102,Sub16_Trial102_0,0,3,3,11.499455,False,0.624
16,0,19-May-2018,1,3,102,Sub16_Trial102_0,0,4,4,9.002258,False,0.624
16,0,19-May-2018,1,3,102,Sub16_Trial102_0,0,5,5,-116.969102,False,0.624
16,0,19-May-2018,1,3,102,Sub16_Trial102_0,0,6,6,-58.733353,False,0.624
16,0,19-May-2018,1,3,102,Sub16_Trial102_1,1,0,0,-20.978402,True,0.624
16,0,19-May-2018,1,3,102,Sub16_Trial102_1,1,1,1,50.875202,True,0.624
16,0,19-May-2018,1,3,102,Sub16_Trial102_1,1,2,2,-90.228716,True,0.624
16,0,19-May-2018,1,3,102,Sub16_Trial102_1,1,3,3,-17.924785,True,0.624
16,0,19-May-2018,1,3,102,Sub16_Trial102_1,1,4,4,-85.948375,True,0.624
16,0,19-May-2018,1,3,102,Sub16_Trial102_1,1,5,5,8.87768,True,0.624
16,0,19-May-2018,1,3,102,Sub16_Trial102_1,1,6,6,122.551265,True,0.624
16,0,19-May-2018,1,3,103,Sub16_Trial103_0,0,0,0,-47.245219,True,2.629
16,0,19-May-2018,1,3,103,Sub16_Trial103_0,0,1,1,-88.613323,True,2.629
16,0,19-May-2018,1,3,103,Sub16_Trial103_0,0,2,2,-81.156633,True,2.629
16,0,19-May-2018,1,3,103,Sub16_Trial103_0,0,3,3,80.028844,True,2.629
16,0,19-May-2018,1,3,103,Sub16_Trial103_0,0,4,4,176.041464,True,2.629
16,0,19-May-2018,1,3,103,Sub16_Trial103_0,0,5,5,-101.563094,True,2.629
16,0,19-May-2018,1,3,103,Sub16_Trial103_0,0,6,6,92.468195,True,2.629
16,0,19-May-2018,1,3,103,Sub16_Trial103_1,1,0,0,-10.241872,False,2.629
16,0,19-May-2018,1,3,103,Sub16_Trial103_1,1,1,1,-58.057614,False,2.629
16,0,19-May-2018,1,3,103,Sub16_Trial103_1,1,2,2,-99.836092,False,2.629
16,0,19-May-2018,1,3,103,Sub16_Trial103_1,1,3,3,85.624364,False,2.629
16,0,19-May-2018,1,3,103,Sub16_Trial103_1,1,4,4,-56.104573,False,2.629
16,0,19-May-2018,1,3,103,Sub16_Trial103_1,1,5,5,-67.457093,False,2.629
16,0,19-May-2018,1,3,103,Sub16_Trial103_1,1,6,6,29.517535,False,2.629
16,0,19-May-2018,1,3,104,Sub16_Trial104_0,0,0,0,-89.577153,True,1.205
16,0,19-May-2018,1,3,104,Sub16_Trial104_0,0,1,1,0.652599,True,1.205
16,0,19-May-2018,1,3,104,Sub16_Trial104_0,0,2,2,-88.107249,True,1.205
16,0,19-May-2018,1,3,104,Sub16_Trial104_0,0,3,3,69.23314,True,1.205
16,0,19-May-2018,1,3,104,Sub16_Trial104_0,0,4,4,-71.603972,True,1.205
16,0,19-May-2018,1,3,104,Sub16_Trial104_0,0,5,5,-98.366928,True,1.205
16,0,19-May-2018,1,3,104,Sub16_Trial104_0,0,6,6,132.833189,True,1.205
16,0,19-May-2018,1,3,104,Sub16_Trial104_1,1,0,0,125.643324,False,1.205
16,0,19-May-2018,1,3,104,Sub16_Trial104_1,1,1,1,9.819652,False,1.205
16,0,19-May-2018,1,3,104,Sub16_Trial104_1,1,2,2,-95.819869,False,1.205
16,0,19-May-2018,1,3,104,Sub16_Trial104_1,1,3,3,-6.034404,False,1.205
16,0,19-May-2018,1,3,104,Sub16_Trial104_1,1,4,4,78.177016,False,1.205
16,0,19-May-2018,1,3,104,Sub16_Trial104_1,1,5,5,-36.082729,False,1.205
16,0,19-May-2018,1,3,104,Sub16_Trial104_1,1,6,6,-21.977386,False,1.205
16,0,19-May-2018,1,3,105,Sub16_Trial105_0,0,0,0,15.031825,False,0.575
16,0,19-May-2018,1,3,105,Sub16_Trial105_0,0,1,1,-9.947393,False,0.575
16,0,19-May-2018,1,3,105,Sub16_Trial105_0,0,2,2,-57.578789,False,0.575
16,0,19-May-2018,1,3,105,Sub16_Trial105_0,0,3,3,-112.618805,False,0.575
16,0,19-May-2018,1,3,105,Sub16_Trial105_0,0,4,4,162.180482,False,0.575
16,0,19-May-2018,1,3,105,Sub16_Trial105_0,0,5,5,-60.052879,False,0.575
16,0,19-May-2018,1,3,105,Sub16_Trial105_0,0,6,6,-34.026908,False,0.575
16,0,19-May-2018,1,3,105,Sub16_Trial105_1,1,0,0,-77.371468,True,0.575
16,0,19-May-2018,1,3,105,Sub16_Trial105_1,1,1,1,50.84777,True,0.575
16,0,19-May-2018,1,3,105,Sub16_Trial105_1,1,2,2,-5.784921,True,0.575
16,0,19-May-2018,1,3,105,Sub16_Trial105_1,1,3,3,-7.599972,True,0.575
16,0,19-May-2018,1,3,105,Sub16_Trial105_1,1,4,4,-42.975001,True,0.575
16,0,19-May-2018,1,3,105,Sub16_Trial105_1,1,5,5,132.149141,True,0.575
16,0,19-May-2018,1,3,105,Sub16_Trial105_1,1,6,6,157.471037,True,0.575
16,0,19-May-2018,1,3,106,Sub16_Trial106_0,0,0,0,61.633123,False,0.352
