subj,patient,date,session,part,trial,stim,stim_order,segment,segment_time,pitch,response,rt
17,0,20-May-2018,1,1,1,Sub17_Trial1_0,0,0,0,105.65252,True,9.634
17,0,20-May-2018,1,1,1,Sub17_Trial1_0,0,1,1,-58.332946,True,9.634
17,0,20-May-2018,1,1,1,Sub17_Trial1_0,0,2,2,184.257641,True,9.634
17,0,20-May-2018,1,1,1,Sub17_Trial1_0,0,3,3,-81.171625,True,9.634
17,0,20-May-2018,1,1,1,Sub17_Trial1_0,0,4,4,-61.825936,True,9.634
17,0,20-May-2018,1,1,1,Sub17_Trial1_0,0,5,5,-41.761596,True,9.634
17,0,20-May-2018,1,1,1,Sub17_Trial1_0,0,6,6,-93.17352,True,9.634
17,0,20-May-2018,1,1,1,Sub17_Trial1_1,1,0,0,24.523552,False,9.634
17,0,20-May-2018,1,1,1,Sub17_Trial1_1,1,1,1,-33.200186,False,9.634
17,0,20-May-2018,1,1,1,Sub17_Trial1_1,1,2,2,-54.425014,False,9.634
17,0,20-May-2018,1,1,1,Sub17_Trial1_1,1,3,3,-18.945425,False,9.634
17,0,20-May-2018,1,1,1,Sub17_Trial1_1,1,4,4,-27.123559,False,9.634
17,0,20-May-2018,1,1,1,Sub17_Trial1_1,1,5,5,34.82447,False,9.634
17,0,20-May-2018,1,1,1,Sub17_Trial1_1,1,6,6,-42.119772,False,9.634
17,0,20-May-2018,1,1,2,Sub17_Trial2_0,0,0,0,-36.032599,True,1.725
17,0,20-May-2018,1,1,2,Sub17_Trial2_0,0,1,1,51.071883,True,1.725
17,0,20-May-2018,1,1,2,Sub17_Trial2_0,0,2,2,-50.971734,True,1.725
17,0,20-May-2018,1,1,2,Sub17_Trial2_0,0,3,3,131.467915,True,1.725
17,0,20-May-2018,1,1,2,Sub17_Trial2_0,0,4,4,135.993765,True,1.725
17,0,20-May-2018,1,1,2,Sub17_Trial2_0,0,5,5,57.05824,True,1.725
17,0,20-May-2018,1,1,2,Sub17_Trial2_0,0,6,6,3.155604,True,1.725
17,0,20-May-2018,1,1,2,Sub17_Trial2_1,1,0,0,63.993924,False,1.725
17,0,20-May-2018,1,1,2,Sub17_Trial2_1,1,1,1,76.065049,False,1.725
17,0,20-May-2018,1,1,2,Sub17_Trial2_1,1,2,2,0.270721,False,1.725
17,0,20-May-2018,1,1,2,Sub17_Trial2_1,1,3,3,-169.880032,False,1.725
17,0,20-May-2018,1,1,2,Sub17_Trial2_1,1,4,4,56.850172,False,1.725
17,0,20-May-2018,1,1,2,Sub17_Trial2_1,1,5,5,-74.804765,False,1.725
17,0,20-May-2018,1,1,2,Sub17_Trial2_1,1,6,6,-9.747807,False,1.725
17,0,20-May-2018,1,1,3,Sub17_Trial3_0,0,0,0,-6.345577,True,6.067
17,0,20-May-2018,1,1,3,Sub17_Trial3_0,0,1,1,28.492666,True,6.067
17,0,20-May-2018,1,1,3,Sub17_Trial3_0,0,2,2,7.551489,True,6.067
17,0,20-May-2018,1,1,3,Sub17_Trial3_0,0,3,3,133.380843,True,6.067
17,0,20-May-2018,1,1,3,Sub17_Trial3_0,0,4,4,-137.567222,True,6.067
17,0,20-May-2018,1,1,3,Sub17_Trial3_0,0,5,5,17.345366,True,6.067
17,0,20-May-2018,1,1,3,Sub17_Trial3_0,0,6,6,32.995504,True,6.067
17,0,20-May-2018,1,1,3,Sub17_Trial3_1,1,0,0,-118.234075,False,6.067
17,0,20-May-2018,1,1,3,Sub17_Trial3_1,1,1,1,21.791051,False,6.067
17,0,20-May-2018,1,1,3,Sub17_Trial3_1,1,2,2,59.49616,False,6.067
17,0,20-May-2018,1,1,3,Sub17_Trial3_1,1,3,3,179.018549,False,6.067
17,0,20-May-2018,1,1,3,Sub17_Trial3_1,1,4,4,-49.45773,False,6.067
17,0,20-May-2018,1,1,3,Sub17_Trial3_1,1,5,5,57.332161,False,6.067
17,0,20-May-2018,1,1,3,Sub17_Trial3_1,1,6,6,-72.956263,False,6.067
17,0,20-May-2018,1,1,4,Sub17_Trial4_0,0,0,0,113.210653,False,1.577
17,0,20-May-2018,1,1,4,Sub17_Trial4_0,0,1,1,-153.286135,False,1.577
17,0,20-May-2018,1,1,4,Sub17_Trial4_0,0,2,2,88.653927,False,1.577
17,0,20-May-2018,1,1,4,Sub17_Trial4_0,0,3,3,-28.164889,False,1.577
17,0,20-May-2018,1,1,4,Sub17_Trial4_0,0,4,4,57.848098,False,1.577
17,0,20-May-2018,1,1,4,Sub17_Trial4_0,0,5,5,-118.595816,False,1.577
17,0,20-May-2018,1,1,4,Sub17_Trial4_0,0,6,6,53.423956,False,1.577
17,0,20-May-2018,1,1,4,Sub17_Trial4_1,1,0,0,-11.931526,True,1.577
17,0,20-May-2018,1,1,4,Sub17_Trial4_1,1,1,1,144.411953,True,1.577
17,0,20-May-2018,1,1,4,Sub17_Trial4_1,1,2,2,-43.448244,True,1.577
17,0,20-May-2018,1,1,4,Sub17_Trial4_1,1,3,3,-22.917076,True,1.577
17,0,20-May-2018,1,1,4,Sub17_Trial4_1,1,4,4,-1.110077,True,1.577
17,0,20-May-2018,1,1,4,Sub17_Trial4_1,1,5,5,91.804923,True,1.577
17,0,20-May-2018,1,1,4,Sub17_Trial4_1,1,6,6,-38.379812,True,1.577
17,0,20-May-2018,1,1,5,Sub17_Trial5_0,0,0,0,-15.446687,True,1.482
17,0,20-May-2018,1,1,5,Sub17_Trial5_0,0,1,1,91.72552,True,1.482
17,0,20-May-2018,1,1,5,Sub17_Trial5_0,0,2,2,19.450062,True,1.482
17,0,20-May-2018,1,1,5,Sub17_Trial5_0,0,3,3,118.122217,True,1.482
17,0,20-May-2018,1,1,5,Sub17_Trial5_0,0,4,4,89.792297,True,1.482
17,0,20-May-2018,1,1,5,Sub17_Trial5_0,0,5,5,38.370173,True,1.482
17,0,20-May-2018,1,1,5,Sub17_Trial5_0,0,6,6,-56.469058,True,1.482
17,0,20-May-2018,1,1,5,Sub17_Trial5_1,1,0,0,-149.931144,False,1.482
17,0,20-May-2018,1,1,5,Sub17_Trial5_1,1,1,1,-48.113704,False,1.482
17,0,20-May-2018,1,1,5,Sub17_Trial5_1,1,2,2,17.771273,False,1.482
17,0,20-May-2018,1,1,5,Sub17_Trial5_1,1,3,3,-29.975904,False,1.482
17,0,20-May-2018,1,1,5,Sub17_Trial5_1,1,4,4,-10.978008,False,1.482
17,0,20-May-2018,1,1,5,Sub17_Trial5_1,1,5,5,44.847363,False,1.482
17,0,20-May-2018,1,1,5,Sub17_Trial5_1,1,6,6,31.753506,False,1.482
17,0,20-May-2018,1,1,6,Sub17_Trial6_0,0,0,0,103.38406,True,1.849
17,0,20-May-2018,1,1,6,Sub17_Trial6_0,0,1,1,-47.227949,True,1.849
17,0,20-May-2018,1,1,6,Sub17_Trial6_0,0,2,2,-78.186943,True,1.849
17,0,20-May-2018,1,1,6,Sub17_Trial6_0,0,3,3,45.68973,True,1.849
17,0,20-May-2018,1,1,6,Sub17_Trial6_0,0,4,4,-129.325879,True,1.849
17,0,20-May-2018,1,1,6,Sub17_Trial6_0,0,5,5,24.542092,True,1.849
17,0,20-May-2018,1,1,6,Sub17_Trial6_0,0,6,6,173.982101,True,1.849
17,0,20-May-2018,1,1,6,Sub17_Trial6_1,1,0,0,30.632999,False,1.849
17,0,20-May-2018,1,1,6,Sub17_Trial6_1,1,1,1,15.87595,False,1.849
17,0,20-May-2018,1,1,6,Sub17_Trial6_1,1,2,2,27.982762,False,1.849
17,0,20-May-2018,1,1,6,Sub17_Trial6_1,1,3,3,41.44267,False,1.849
17,0,20-May-2018,1,1,6,Sub17_Trial6_1,1,4,4,37.802595,False,1.849
17,0,20-May-2018,1,1,6,Sub17_Trial6_1,1,5,5,-184.051157,False,1.849
17,0,20-May-2018,1,1,6,Sub17_Trial6_1,1,6,6,8.283158,False,1.849
17,0,20-May-2018,1,1,7,Sub17_Trial7_0,0,0,0,-37.5964,False,1.046
17,0,20-May-2018,1,1,7,Sub17_Trial7_0,0,1,1,28.670437,False,1.046
17,0,20-May-2018,1,1,7,Sub17_Trial7_0,0,2,2,-6.533343,False,1.046
17,0,20-May-2018,1,1,7,Sub17_Trial7_0,0,3,3,118.107409,False,1.046
17,0,20-May-2018,1,1,7,Sub17_Trial7_0,0,4,4,141.684644,False,1.046
17,0,20-May-2018,1,1,7,Sub17_Trial7_0,0,5,5,-19.250141,False,1.046
17,0,20-May-2018,1,1,7,Sub17_Trial7_0,0,6,6,61.013264,False,1.046
17,0,20-May-2018,1,1,7,Sub17_Trial7_1,1,0,0,6.819121,True,1.046
17,0,20-May-2018,1,1,7,Sub17_Trial7_1,1,1,1,-78.320952,True,1.046
17,0,20-May-2018,1,1,7,Sub17_Trial7_1,1,2,2,-63.500042,True,1.046
17,0,20-May-2018,1,1,7,Sub17_Trial7_1,1,3,3,90.115053,True,1.046
17,0,20-May-2018,1,1,7,Sub17_Trial7_1,1,4,4,17.161366,True,1.046
17,0,20-May-2018,1,1,7,Sub17_Trial7_1,1,5,5,91.144262,True,1.046
17,0,20-May-2018,1,1,7,Sub17_Trial7_1,1,6,6,-30.17704,True,1.046
17,0,20-May-2018,1,1,8,Sub17_Trial8_0,0,0,0,139.46594,True,1.728
17,0,20-May-2018,1,1,8,Sub17_Trial8_0,0,1,1,43.792449,True,1.728
17,0,20-May-2018,1,1,8,Sub17_Trial8_0,0,2,2,-4.043242,True,1.728
17,0,20-May-2018,1,1,8,Sub17_Trial8_0,0,3,3,-110.448965,True,1.728
17,0,20-May-2018,1,1,8,Sub17_Trial8_0,0,4,4,24.27569,True,1.728
17,0,20-May-2018,1,1,8,Sub17_Trial8_0,0,5,5,-85.800246,True,1.728
17,0,20-May-2018,1,1,8,Sub17_Trial8_0,0,6,6,175.910752,True,1.728
17,0,20-May-2018,1,1,8,Sub17_Trial8_1,1,0,0,116.424409,False,1.728
17,0,20-May-2018,1,1,8,Sub17_Trial8_1,1,1,1,-188.004906,False,1.728
17,0,20-May-2018,1,1,8,Sub17_Trial8_1,1,2,2,58.147345,False,1.728
17,0,20-May-2018,1,1,8,Sub17_Trial8_1,1,3,3,8.742067,False,1.728
17,0,20-May-2018,1,1,8,Sub17_Trial8_1,1,4,4,-18.320916,False,1.728
17,0,20-May-2018,1,1,8,Sub17_Trial8_1,1,5,5,-146.074902,False,1.728
17,0,20-May-2018,1,1,8,Sub17_Trial8_1,1,6,6,57.332276,False,1.728
17,0,20-May-2018,1,1,9,Sub17_Trial9_0,0,0,0,-179.397239,True,3.213
17,0,20-May-2018,1,1,9,Sub17_Trial9_0,0,1,1,-46.187356,True,3.213
17,0,20-May-2018,1,1,9,Sub17_Trial9_0,0,2,2,-1.787395,True,3.213
17,0,20-May-2018,1,1,9,Sub17_Trial9_0,0,3,3,-32.623554,True,3.213
17,0,20-May-2018,1,1,9,Sub17_Trial9_0,0,4,4,23.185072,True,3.213
17,0,20-May-2018,1,1,9,Sub17_Trial9_0,0,5,5,158.433152,True,3.213
17,0,20-May-2018,1,1,9,Sub17_Trial9_0,0,6,6,-36.041363,True,3.213
17,0,20-May-2018,1,1,9,Sub17_Trial9_1,1,0,0,77.894331,False,3.213
17,0,20-May-2018,1,1,9,Sub17_Trial9_1,1,1,1,15.266287,False,3.213
17,0,20-May-2018,1,1,9,Sub17_Trial9_1,1,2,2,-72.083258,False,3.213
17,0,20-May-2018,1,1,9,Sub17_Trial9_1,1,3,3,25.29746,False,3.213
17,0,20-May-2018,1,1,9,Sub17_Trial9_1,1,4,4,13.800356,False,3.213
17,0,20-May-2018,1,1,9,Sub17_Trial9_1,1,5,5,38.29723,False,3.213
17,0,20-May-2018,1,1,9,Sub17_Trial9_1,1,6,6,-46.021058,False,3.213
17,0,20-May-2018,1,1,10,Sub17_Trial10_0,0,0,0,28.426607,True,2.135
17,0,20-May-2018,1,1,10,Sub17_Trial10_0,0,1,1,-12.519113,True,2.135
17,0,20-May-2018,1,1,10,Sub17_Trial10_0,0,2,2,4.970768,True,2.135
17,0,20-May-2018,1,1,10,Sub17_Trial10_0,0,3,3,-40.16266,True,2.135
17,0,20-May-2018,1,1,10,Sub17_Trial10_0,0,4,4,45.546146,True,2.135
17,0,20-May-2018,1,1,10,Sub17_Trial10_0,0,5,5,32.587423,True,2.135
17,0,20-May-2018,1,1,10,Sub17_Trial10_0,0,6,6,28.923894,True,2.135
17,0,20-May-2018,1,1,10,Sub17_Trial10_1,1,0,0,-41.904337,False,2.135
17,0,20-May-2018,1,1,10,Sub17_Trial10_1,1,1,1,-97.119742,False,2.135
17,0,20-May-2018,1,1,10,Sub17_Trial10_1,1,2,2,31.933385,False,2.135
17,0,20-May-2018,1,1,10,Sub17_Trial10_1,1,3,3,-9.425989,False,2.135
17,0,20-May-2018,1,1,10,Sub17_Trial10_1,1,4,4,8.410368,False,2.135
17,0,20-May-2018,1,1,10,Sub17_Trial10_1,1,5,5,-20.044326,False,2.135
17,0,20-May-2018,1,1,10,Sub17_Trial10_1,1,6,6,104.393816,False,2.135
17,0,20-May-2018,1,1,11,Sub17_Trial11_0,0,0,0,72.587233,False,1.684
17,0,20-May-2018,1,1,11,Sub17_Trial11_0,0,1,1,-95.314942,False,1.684
17,0,20-May-2018,1,1,11,Sub17_Trial11_0,0,2,2,-40.95038,False,1.684
17,0,20-May-2018,1,1,11,Sub17_Trial11_0,0,3,3,-125.811344,False,1.684
17,0,20-May-2018,1,1,11,Sub17_Trial11_0,0,4,4,13.01307,False,1.684
17,0,20-May-2018,1,1,11,Sub17_Trial11_0,0,5,5,130.761555,False,1.684
17,0,20-May-2018,1,1,11,Sub17_Trial11_0,0,6,6,47.497501,False,1.684
17,0,20-May-2018,1,1,11,Sub17_Trial11_1,1,0,0,-102.003298,True,1.684
17,0,20-May-2018,1,1,11,Sub17_Trial11_1,1,1,1,34.39103,True,1.684
17,0,20-May-2018,1,1,11,Sub17_Trial11_1,1,2,2,-50.70189,True,1.684
17,0,20-May-2018,1,1,11,Sub17_Trial11_1,1,3,3,45.686288,True,1.684
17,0,20-May-2018,1,1,11,Sub17_Trial11_1,1,4,4,23.666719,True,1.684
17,0,20-May-2018,1,1,11,Sub17_Trial11_1,1,5,5,109.26541,True,1.684
17,0,20-May-2018,1,1,11,Sub17_Trial11_1,1,6,6,115.407169,True,1.684
17,0,20-May-2018,1,1,12,Sub17_Trial12_0,0,0,0,81.501408,True,1.791
17,0,20-May-2018,1,1,12,Sub17_Trial12_0,0,1,1,-171.410396,True,1.791
17,0,20-May-2018,1,1,12,Sub17_Trial12_0,0,2,2,-73.097882,True,1.791
17,0,20-May-2018,1,1,12,Sub17_Trial12_0,0,3,3,-52.211072,True,1.791
17,0,20-May-2018,1,1,12,Sub17_Trial12_0,0,4,4,56.153431,True,1.791
17,0,20-May-2018,1,1,12,Sub17_Trial12_0,0,5,5,47.004304,True,1.791
17,0,20-May-2018,1,1,12,Sub17_Trial12_0,0,6,6,-73.827975,True,1.791
17,0,20-May-2018,1,1,12,Sub17_Trial12_1,1,0,0,16.617803,False,1.791
17,0,20-May-2018,1,1,12,Sub17_Trial12_1,1,1,1,-44.248832,False,1.791
17,0,20-May-2018,1,1,12,Sub17_Trial12_1,1,2,2,50.132439,False,1.791
17,0,20-May-2018,1,1,12,Sub17_Trial12_1,1,3,3,118.620188,False,1.791
17,0,20-May-2018,1,1,12,Sub17_Trial12_1,1,4,4,12.358134,False,1.791
17,0,20-May-2018,1,1,12,Sub17_Trial12_1,1,5,5,-48.142132,False,1.791
17,0,20-May-2018,1,1,12,Sub17_Trial12_1,1,6,6,-106.700317,False,1.791
17,0,20-May-2018,1,1,13,Sub17_Trial13_0,0,0,0,86.689137,True,0.866
17,0,20-May-2018,1,1,13,Sub17_Trial13_0,0,1,1,110.352577,True,0.866
17,0,20-May-2018,1,1,13,Sub17_Trial13_0,0,2,2,-23.248533,True,0.866
17,0,20-May-2018,1,1,13,Sub17_Trial13_0,0,3,3,96.965316,True,0.866
17,0,20-May-2018,1,1,13,Sub17_Trial13_0,0,4,4,24.647114,True,0.866
17,0,20-May-2018,1,1,13,Sub17_Trial13_0,0,5,5,21.215441,True,0.866
17,0,20-May-2018,1,1,13,Sub17_Trial13_0,0,6,6,-64.745878,True,0.866
17,0,20-May-2018,1,1,13,Sub17_Trial13_1,1,0,0,37.842801,False,0.866
17,0,20-May-2018,1,1,13,Sub17_Trial13_1,1,1,1,127.372931,False,0.866
17,0,20-May-2018,1,1,13,Sub17_Trial13_1,1,2,2,73.377438,False,0.866
17,0,20-May-2018,1,1,13,Sub17_Trial13_1,1,3,3,-60.581217,False,0.866
17,0,20-May-2018,1,1,13,Sub17_Trial13_1,1,4,4,-30.994333,False,0.866
17,0,20-May-2018,1,1,13,Sub17_Trial13_1,1,5,5,-154.150366,False,0.866
17,0,20-May-2018,1,1,13,Sub17_Trial13_1,1,6,6,-75.059594,False,0.866
17,0,20-May-2018,1,1,14,Sub17_Trial14_0,0,0,0,-40.441624,False,2.718
17,0,20-May-2018,1,1,14,Sub17_Trial14_0,0,1,1,-50.331054,False,2.718
17,0,20-May-2018,1,1,14,Sub17_Trial14_0,0,2,2,187.993339,False,2.718
17,0,20-May-2018,1,1,14,Sub17_Trial14_0,0,3,3,125.262466,False,2.718
17,0,20-May-2018,1,1,14,Sub17_Trial14_0,0,4,4,-18.920357,False,2.718
17,0,20-May-2018,1,1,14,Sub17_Trial14_0,0,5,5,130.400767,False,2.718
17,0,20-May-2018,1,1,14,Sub17_Trial14_0,0,6,6,-73.34149,False,2.718
17,0,20-May-2018,1,1,14,Sub17_Trial14_1,1,0,0,-109.783995,True,2.718
17,0,20-May-2018,1,1,14,Sub17_Trial14_1,1,1,1,-119.591082,True,2.718
17,0,20-May-2018,1,1,14,Sub17_Trial14_1,1,2,2,-130.044102,True,2.718
17,0,20-May-2018,1,1,14,Sub17_Trial14_1,1,3,3,-20.916107,True,2.718
17,0,20-May-2018,1,1,14,Sub17_Trial14_1,1,4,4,-91.224595,True,2.718
17,0,20-May-2018,1,1,14,Sub17_Trial14_1,1,5,5,86.940984,True,2.718
17,0,20-May-2018,1,1,14,Sub17_Trial14_1,1,6,6,-17.696426,True,2.718
17,0,20-May-2018,1,1,15,Sub17_Trial15_0,0,0,0,-118.008577,True,0.967
17,0,20-May-2018,1,1,15,Sub17_Trial15_0,0,1,1,-6.230636,True,0.967
17,0,20-May-2018,1,1,15,Sub17_Trial15_0,0,2,2,-147.680214,True,0.967
17,0,20-May-2018,1,1,15,Sub17_Trial15_0,0,3,3,-4.957243,True,0.967
17,0,20-May-2018,1,1,15,Sub17_Trial15_0,0,4,4,32.141358,True,0.967
17,0,20-May-2018,1,1,15,Sub17_Trial15_0,0,5,5,53.245614,True,0.967
17,0,20-May-2018,1,1,15,Sub17_Trial15_0,0,6,6,-122.696555,True,0.967
17,0,20-May-2018,1,1,15,Sub17_Trial15_1,1,0,0,-178.342938,False,0.967
17,0,20-May-2018,1,1,15,Sub17_Trial15_1,1,1,1,111.0035,False,0.967
17,0,20-May-2018,1,1,15,Sub17_Trial15_1,1,2,2,-69.454334,False,0.967
17,0,20-May-2018,1,1,15,Sub17_Trial15_1,1,3,3,-5.337176,False,0.967
17,0,20-May-2018,1,1,15,Sub17_Trial15_1,1,4,4,-57.146092,False,0.967
17,0,20-May-2018,1,1,15,Sub17_Trial15_1,1,5,5,-26.460132,False,0.967
17,0,20-May-2018,1,1,15,Sub17_Trial15_1,1,6,6,-179.350992,False,0.967
17,0,20-May-2018,1,1,16,Sub17_Trial16_0,0,0,0,-12.820721,False,2.34
17,0,20-May-2018,1,1,16,Sub17_Trial16_0,0,1,1,12.172837,False,2.34
17,0,20-May-2018,1,1,16,Sub17_Trial16_0,0,2,2,41.986856,False,2.34
17,0,20-May-2018,1,1,16,Sub17_Trial16_0,0,3,3,24.562169,False,2.34
17,0,20-May-2018,1,1,16,Sub17_Trial16_0,0,4,4,-10.989048,False,2.34
17,0,20-May-2018,1,1,16,Sub17_Trial16_0,0,5,5,85.592718,False,2.34
17,0,20-May-2018,1,1,16,Sub17_Trial16_0,0,6,6,-131.743838,False,2.34
17,0,20-May-2018,1,1,16,Sub17_Trial16_1,1,0,0,44.875019,True,2.34
17,0,20-May-2018,1,1,16,Sub17_Trial16_1,1,1,1,-1.308632,True,2.34
17,0,20-May-2018,1,1,16,Sub17_Trial16_1,1,2,2,190.501743,True,2.34
17,0,20-May-2018,1,1,16,Sub17_Trial16_1,1,3,3,24.483254,True,2.34
17,0,20-May-2018,1,1,16,Sub17_Trial16_1,1,4,4,-133.044932,True,2.34
17,0,20-May-2018,1,1,16,Sub17_Trial16_1,1,5,5,52.36894,True,2.34
17,0,20-May-2018,1,1,16,Sub17_Trial16_1,1,6,6,-10.492709,True,2.34
17,0,20-May-2018,1,1,17,Sub17_Trial17_0,0,0,0,26.848473,True,2.317
17,0,20-May-2018,1,1,17,Sub17_Trial17_0,0,1,1,17.300898,True,2.317
17,0,20-May-2018,1,1,17,Sub17_Trial17_0,0,2,2,157.70106,True,2.317
17,0,20-May-2018,1,1,17,Sub17_Trial17_0,0,3,3,-109.855862,True,2.317
17,0,20-May-2018,1,1,17,Sub17_Trial17_0,0,4,4,58.521954,True,2.317
17,0,20-May-2018,1,1,17,Sub17_Trial17_0,0,5,5,8.137688,True,2.317
17,0,20-May-2018,1,1,17,Sub17_Trial17_0,0,6,6,-68.354187,True,2.317
17,0,20-May-2018,1,1,17,Sub17_Trial17_1,1,0,0,-107.260706,False,2.317
17,0,20-May-2018,1,1,17,Sub17_Trial17_1,1,1,1,-92.150302,False,2.317
17,0,20-May-2018,1,1,17,Sub17_Trial17_1,1,2,2,-35.515864,False,2.317
17,0,20-May-2018,1,1,17,Sub17_Trial17_1,1,3,3,-53.822174,False,2.317
17,0,20-May-2018,1,1,17,Sub17_Trial17_1,1,4,4,-46.433762,False,2.317
17,0,20-May-2018,1,1,17,Sub17_Trial17_1,1,5,5,62.582301,False,2.317
17,0,20-May-2018,1,1,17,Sub17_Trial17_1,1,6,6,-86.394323,False,2.317
17,0,20-May-2018,1,1,18,Sub17_Trial18_0,0,0,0,122.933513,True,1.365
17,0,20-May-2018,1,1,18,Sub17_Trial18_0,0,1,1,-81.787335,True,1.365
17,0,20-May-2018,1,1,18,Sub17_Trial18_0,0,2,2,-46.141273,True,1.365
17,0,20-May-2018,1,1,18,Sub17_Trial18_0,0,3,3,75.465184,True,1.365
17,0,20-May-2018,1,1,18,Sub17_Trial18_0,0,4,4,18.750377,True,1.365
17,0,20-May-2018,1,1,18,Sub17_Trial18_0,0,5,5,-3.125734,True,1.365
17,0,20-May-2018,1,1,18,Sub17_Trial18_0,0,6,6,-60.057556,True,1.365
17,0,20-May-2018,1,1,18,Sub17_Trial18_1,1,0,0,38.13106,False,1.365
17,0,20-May-2018,1,1,18,Sub17_Trial18_1,1,1,1,65.062209,False,1.365
17,0,20-May-2018,1,1,18,Sub17_Trial18_1,1,2,2,-14.045448,False,1.365
17,0,20-May-2018,1,1,18,Sub17_Trial18_1,1,3,3,14.829318,False,1.365
17,0,20-May-2018,1,1,18,Sub17_Trial18_1,1,4,4,28.815616,False,1.365
17,0,20-May-2018,1,1,18,Sub17_Trial18_1,1,5,5,-152.969,False,1.365
17,0,20-May-2018,1,1,18,Sub17_Trial18_1,1,6,6,50.972123,False,1.365
17,0,20-May-2018,1,1,19,Sub17_Trial19_0,0,0,0,-38.794067,True,1.126
17,0,20-May-2018,1,1,19,Sub17_Trial19_0,0,1,1,-37.599001,True,1.126
17,0,20-May-2018,1,1,19,Sub17_Trial19_0,0,2,2,-2.81662,True,1.126
17,0,20-May-2018,1,1,19,Sub17_Trial19_0,0,3,3,-43.228003,True,1.126
17,0,20-May-2018,1,1,19,Sub17_Trial19_0,0,4,4,-44.576293,True,1.126
17,0,20-May-2018,1,1,19,Sub17_Trial19_0,0,5,5,57.047013,True,1.126
17,0,20-May-2018,1,1,19,Sub17_Trial19_0,0,6,6,-67.376445,True,1.126
17,0,20-May-2018,1,1,19,Sub17_Trial19_1,1,0,0,128.321402,False,1.126
17,0,20-May-2018,1,1,19,Sub17_Trial19_1,1,1,1,-193.708266,False,1.126
17,0,20-May-2018,1,1,19,Sub17_Trial19_1,1,2,2,-3.59776,False,1.126
17,0,20-May-2018,1,1,19,Sub17_Trial19_1,1,3,3,7.910832,False,1.126
17,0,20-May-2018,1,1,19,Sub17_Trial19_1,1,4,4,74.661485,False,1.126
17,0,20-May-2018,1,1,19,Sub17_Trial19_1,1,5,5,-137.776345,False,1.126
17,0,20-May-2018,1,1,19,Sub17_Trial19_1,1,6,6,77.390839,False,1.126
17,0,20-May-2018,1,1,20,Sub17_Trial20_0,0,0,0,-60.35405,True,0.587
17,0,20-May-2018,1,1,20,Sub17_Trial20_0,0,1,1,57.342511,True,0.587
17,0,20-May-2018,1,1,20,Sub17_Trial20_0,0,2,2,-53.552672,True,0.587
17,0,20-May-2018,1,1,20,Sub17_Trial20_0,0,3,3,119.51337,True,0.587
17,0,20-May-2018,1,1,20,Sub17_Trial20_0,0,4,4,-124.085871,True,0.587
17,0,20-May-2018,1,1,20,Sub17_Trial20_0,0,5,5,51.246183,True,0.587
17,0,20-May-2018,1,1,20,Sub17_Trial20_0,0,6,6,-42.824322,True,0.587
17,0,20-May-2018,1,1,20,Sub17_Trial20_1,1,0,0,-21.004106,False,0.587
17,0,20-May-2018,1,1,20,Sub17_Trial20_1,1,1,1,-76.160134,False,0.587
17,0,20-May-2018,1,1,20,Sub17_Trial20_1,1,2,2,-16.18547,False,0.587
17,0,20-May-2018,1,1,20,Sub17_Trial20_1,1,3,3,41.938865,False,0.587
17,0,20-May-2018,1,1,20,Sub17_Trial20_1,1,4,4,-57.916619,False,0.587
17,0,20-May-2018,1,1,20,Sub17_Trial20_1,1,5,5,-8.120732,False,0.587
17,0,20-May-2018,1,1,20,Sub17_Trial20_1,1,6,6,-160.38688,False,0.587
17,0,20-May-2018,1,1,21,Sub17_Trial21_0,0,0,0,-93.828721,True,0.858
17,0,20-May-2018,1,1,21,Sub17_Trial21_0,0,1,1,-57.455031,True,0.858
17,0,20-May-2018,1,1,21,Sub17_Trial21_0,0,2,2,-104.522631,True,0.858
17,0,20-May-2018,1,1,21,Sub17_Trial21_0,0,3,3,-11.136809,True,0.858
17,0,20-May-2018,1,1,21,Sub17_Trial21_0,0,4,4,-74.095869,True,0.858
17,0,20-May-2018,1,1,21,Sub17_Trial21_0,0,5,5,-51.081018,True,0.858
17,0,20-May-2018,1,1,21,Sub17_Trial21_0,0,6,6,-67.761048,True,0.858
17,0,20-May-2018,1,1,21,Sub17_Trial21_1,1,0,0,-54.127625,False,0.858
17,0,20-May-2018,1,1,21,Sub17_Trial21_1,1,1,1,-52.04927,False,0.858
17,0,20-May-2018,1,1,21,Sub17_Trial21_1,1,2,2,-50.994315,False,0.858
17,0,20-May-2018,1,1,21,Sub17_Trial21_1,1,3,3,97.448874,False,0.858
17,0,20-May-2018,1,1,21,Sub17_Trial21_1,1,4,4,-4.683294,False,0.858
17,0,20-May-2018,1,1,21,Sub17_Trial21_1,1,5,5,-25.578308,False,0.858
17,0,20-May-2018,1,1,21,Sub17_Trial21_1,1,6,6,108.562465,False,0.858
17,0,20-May-2018,1,1,22,Sub17_Trial22_0,0,0,0,-83.276546,True,0.935
17,0,20-May-2018,1,1,22,Sub17_Trial22_0,0,1,1,112.959761,True,0.935
17,0,20-May-2018,1,1,22,Sub17_Trial22_0,0,2,2,-99.133968,True,0.935
17,0,20-May-2018,1,1,22,Sub17_Trial22_0,0,3,3,-2.662709,True,0.935
17,0,20-May-2018,1,1,22,Sub17_Trial22_0,0,4,4,5.202874,True,0.935
17,0,20-May-2018,1,1,22,Sub17_Trial22_0,0,5,5,74.928842,True,0.935
17,0,20-May-2018,1,1,22,Sub17_Trial22_0,0,6,6,46.724801,True,0.935
17,0,20-May-2018,1,1,22,Sub17_Trial22_1,1,0,0,-40.633495,False,0.935
17,0,20-May-2018,1,1,22,Sub17_Trial22_1,1,1,1,62.426284,False,0.935
17,0,20-May-2018,1,1,22,Sub17_Trial22_1,1,2,2,-139.350068,False,0.935
17,0,20-May-2018,1,1,22,Sub17_Trial22_1,1,3,3,-84.567828,False,0.935
17,0,20-May-2018,1,1,22,Sub17_Trial22_1,1,4,4,-175.627311,False,0.935
17,0,20-May-2018,1,1,22,Sub17_Trial22_1,1,5,5,-98.478871,False,0.935
17,0,20-May-2018,1,1,22,Sub17_Trial22_1,1,6,6,23.943357,False,0.935
17,0,20-May-2018,1,1,23,Sub17_Trial23_0,0,0,0,36.461992,False,0.499
17,0,20-May-2018,1,1,23,Sub17_Trial23_0,0,1,1,-86.082543,False,0.499
17,0,20-May-2018,1,1,23,Sub17_Trial23_0,0,2,2,-23.94996,False,0.499
17,0,20-May-2018,1,1,23,Sub17_Trial23_0,0,3,3,56.260723,False,0.499
17,0,20-May-2018,1,1,23,Sub17_Trial23_0,0,4,4,-48.172056,False,0.499
17,0,20-May-2018,1,1,23,Sub17_Trial23_0,0,5,5,-115.425001,False,0.499
17,0,20-May-2018,1,1,23,Sub17_Trial23_0,0,6,6,60.798365,False,0.499
17,0,20-May-2018,1,1,23,Sub17_Trial23_1,1,0,0,-122.703317,True,0.499
17,0,20-May-2018,1,1,23,Sub17_Trial23_1,1,1,1,99.084885,True,0.499
17,0,20-May-2018,1,1,23,Sub17_Trial23_1,1,2,2,-105.456791,True,0.499
17,0,20-May-2018,1,1,23,Sub17_Trial23_1,1,3,3,-124.745754,True,0.499
17,0,20-May-2018,1,1,23,Sub17_Trial23_1,1,4,4,190.76318,True,0.499
17,0,20-May-2018,1,1,23,Sub17_Trial23_1,1,5,5,57.692347,True,0.499
17,0,20-May-2018,1,1,23,Sub17_Trial23_1,1,6,6,70.452201,True,0.499
17,0,20-May-2018,1,1,24,Sub17_Trial24_0,0,0,0,24.06083,False,1.123
17,0,20-May-2018,1,1,24,Sub17_Trial24_0,0,1,1,-32.375503,False,1.123
17,0,20-May-2018,1,1,24,Sub17_Trial24_0,0,2,2,-116.416738,False,1.123
17,0,20-May-2018,1,1,24,Sub17_Trial24_0,0,3,3,-27.911228,False,1.123
17,0,20-May-2018,1,1,24,Sub17_Trial24_0,0,4,4,67.714142,False,1.123
17,0,20-May-2018,1,1,24,Sub17_Trial24_0,0,5,5,137.601867,False,1.123
17,0,20-May-2018,1,1,24,Sub17_Trial24_0,0,6,6,56.089606,False,1.123
17,0,20-May-2018,1,1,24,Sub17_Trial24_1,1,0,0,-101.459763,True,1.123
17,0,20-May-2018,1,1,24,Sub17_Trial24_1,1,1,1,84.641826,True,1.123
17,0,20-May-2018,1,1,24,Sub17_Trial24_1,1,2,2,6.699945,True,1.123
17,0,20-May-2018,1,1,24,Sub17_Trial24_1,1,3,3,5.139289,True,1.123
17,0,20-May-2018,1,1,24,Sub17_Trial24_1,1,4,4,44.78979,True,1.123
17,0,20-May-2018,1,1,24,Sub17_Trial24_1,1,5,5,34.492,True,1.123
17,0,20-May-2018,1,1,24,Sub17_Trial24_1,1,6,6,-120.110693,True,1.123
17,0,20-May-2018,1,1,25,Sub17_Trial25_0,0,0,0,2.412723,True,1.674
17,0,20-May-2018,1,1,25,Sub17_Trial25_0,0,1,1,-92.026721,True,1.674
17,0,20-May-2018,1,1,25,Sub17_Trial25_0,0,2,2,-38.946364,True,1.674
17,0,20-May-2018,1,1,25,Sub17_Trial25_0,0,3,3,11.977554,True,1.674
17,0,20-May-2018,1,1,25,Sub17_Trial25_0,0,4,4,62.018018,True,1.674
17,0,20-May-2018,1,1,25,Sub17_Trial25_0,0,5,5,70.425956,True,1.674
17,0,20-May-2018,1,1,25,Sub17_Trial25_0,0,6,6,82.802727,True,1.674
17,0,20-May-2018,1,1,25,Sub17_Trial25_1,1,0,0,53.244329,False,1.674
17,0,20-May-2018,1,1,25,Sub17_Trial25_1,1,1,1,87.037691,False,1.674
17,0,20-May-2018,1,1,25,Sub17_Trial25_1,1,2,2,52.260127,False,1.674
17,0,20-May-2018,1,1,25,Sub17_Trial25_1,1,3,3,11.028031,False,1.674
17,0,20-May-2018,1,1,25,Sub17_Trial25_1,1,4,4,-99.100906,False,1.674
17,0,20-May-2018,1,1,25,Sub17_Trial25_1,1,5,5,-170.93107,False,1.674
17,0,20-May-2018,1,1,25,Sub17_Trial25_1,1,6,6,78.175909,False,1.674
17,0,20-May-2018,1,1,26,Sub17_Trial26_0,0,0,0,181.560051,True,2.403
17,0,20-May-2018,1,1,26,Sub17_Trial26_0,0,1,1,96.081513,True,2.403
17,0,20-May-2018,1,1,26,Sub17_Trial26_0,0,2,2,97.165905,True,2.403
17,0,20-May-2018,1,1,26,Sub17_Trial26_0,0,3,3,-98.834623,True,2.403
17,0,20-May-2018,1,1,26,Sub17_Trial26_0,0,4,4,2.24561,True,2.403
17,0,20-May-2018,1,1,26,Sub17_Trial26_0,0,5,5,23.125998,True,2.403
17,0,20-May-2018,1,1,26,Sub17_Trial26_0,0,6,6,117.904833,True,2.403
17,0,20-May-2018,1,1,26,Sub17_Trial26_1,1,0,0,-33.999493,False,2.403
17,0,20-May-2018,1,1,26,Sub17_Trial26_1,1,1,1,-126.360305,False,2.403
17,0,20-May-2018,1,1,26,Sub17_Trial26_1,1,2,2,127.273322,False,2.403
17,0,20-May-2018,1,1,26,Sub17_Trial26_1,1,3,3,114.245874,False,2.403
17,0,20-May-2018,1,1,26,Sub17_Trial26_1,1,4,4,-116.891429,False,2.403
17,0,20-May-2018,1,1,26,Sub17_Trial26_1,1,5,5,-29.098579,False,2.403
17,0,20-May-2018,1,1,26,Sub17_Trial26_1,1,6,6,-25.239717,False,2.403
17,0,20-May-2018,1,1,27,Sub17_Trial27_0,0,0,0,-69.822918,False,1.349
17,0,20-May-2018,1,1,27,Sub17_Trial27_0,0,1,1,50.736423,False,1.349
17,0,20-May-2018,1,1,27,Sub17_Trial27_0,0,2,2,-11.045781,False,1.349
17,0,20-May-2018,1,1,27,Sub17_Trial27_0,0,3,3,84.006855,False,1.349
17,0,20-May-2018,1,1,27,Sub17_Trial27_0,0,4,4,85.764612,False,1.349
17,0,20-May-2018,1,1,27,Sub17_Trial27_0,0,5,5,52.599921,False,1.349
17,0,20-May-2018,1,1,27,Sub17_Trial27_0,0,6,6,70.270929,False,1.349
17,0,20-May-2018,1,1,27,Sub17_Trial27_1,1,0,0,15.309882,True,1.349
17,0,20-May-2018,1,1,27,Sub17_Trial27_1,1,1,1,-130.483029,True,1.349
17,0,20-May-2018,1,1,27,Sub17_Trial27_1,1,2,2,-129.105073,True,1.349
17,0,20-May-2018,1,1,27,Sub17_Trial27_1,1,3,3,-5.700564,True,1.349
17,0,20-May-2018,1,1,27,Sub17_Trial27_1,1,4,4,116.92683,True,1.349
17,0,20-May-2018,1,1,27,Sub17_Trial27_1,1,5,5,77.180601,True,1.349
17,0,20-May-2018,1,1,27,Sub17_Trial27_1,1,6,6,27.995937,True,1.349
17,0,20-May-2018,1,1,28,Sub17_Trial28_0,0,0,0,90.356746,False,2.347
17,0,20-May-2018,1,1,28,Sub17_Trial28_0,0,1,1,95.041449,False,2.347
17,0,20-May-2018,1,1,28,Sub17_Trial28_0,0,2,2,26.30277,False,2.347
17,0,20-May-2018,1,1,28,Sub17_Trial28_0,0,3,3,45.162227,False,2.347
17,0,20-May-2018,1,1,28,Sub17_Trial28_0,0,4,4,13.918555,False,2.347
17,0,20-May-2018,1,1,28,Sub17_Trial28_0,0,5,5,73.882013,False,2.347
17,0,20-May-2018,1,1,28,Sub17_Trial28_0,0,6,6,131.910179,False,2.347
17,0,20-May-2018,1,1,28,Sub17_Trial28_1,1,0,0,16.825621,True,2.347
17,0,20-May-2018,1,1,28,Sub17_Trial28_1,1,1,1,75.799431,True,2.347
17,0,20-May-2018,1,1,28,Sub17_Trial28_1,1,2,2,69.658293,True,2.347
17,0,20-May-2018,1,1,28,Sub17_Trial28_1,1,3,3,133.771775,True,2.347
17,0,20-May-2018,1,1,28,Sub17_Trial28_1,1,4,4,33.080771,True,2.347
17,0,20-May-2018,1,1,28,Sub17_Trial28_1,1,5,5,155.916278,True,2.347
17,0,20-May-2018,1,1,28,Sub17_Trial28_1,1,6,6,-6.632358,True,2.347
17,0,20-May-2018,1,1,29,Sub17_Trial29_0,0,0,0,-91.902002,True,2.046
17,0,20-May-2018,1,1,29,Sub17_Trial29_0,0,1,1,-125.251122,True,2.046
17,0,20-May-2018,1,1,29,Sub17_Trial29_0,0,2,2,35.723775,True,2.046
17,0,20-May-2018,1,1,29,Sub17_Trial29_0,0,3,3,70.829188,True,2.046
17,0,20-May-2018,1,1,29,Sub17_Trial29_0,0,4,4,19.912342,True,2.046
17,0,20-May-2018,1,1,29,Sub17_Trial29_0,0,5,5,-18.706053,True,2.046
17,0,20-May-2018,1,1,29,Sub17_Trial29_0,0,6,6,84.551346,True,2.046
17,0,20-May-2018,1,1,29,Sub17_Trial29_1,1,0,0,50.535566,False,2.046
17,0,20-May-2018,1,1,29,Sub17_Trial29_1,1,1,1,15.394087,False,2.046
17,0,20-May-2018,1,1,29,Sub17_Trial29_1,1,2,2,3.357902,False,2.046
17,0,20-May-2018,1,1,29,Sub17_Trial29_1,1,3,3,3.824178,False,2.046
17,0,20-May-2018,1,1,29,Sub17_Trial29_1,1,4,4,-38.130141,False,2.046
17,0,20-May-2018,1,1,29,Sub17_Trial29_1,1,5,5,-85.337999,False,2.046
17,0,20-May-2018,1,1,29,Sub17_Trial29_1,1,6,6,-28.188489,False,2.046
17,0,20-May-2018,1,1,30,Sub17_Trial30_0,0,0,0,125.77983,False,0.753
17,0,20-May-2018,1,1,30,Sub17_Trial30_0,0,1,1,76.019923,False,0.753
17,0,20-May-2018,1,1,30,Sub17_Trial30_0,0,2,2,1.356554,False,0.753
17,0,20-May-2018,1,1,30,Sub17_Trial30_0,0,3,3,-90.660843,False,0.753
17,0,20-May-2018,1,1,30,Sub17_Trial30_0,0,4,4,51.504941,False,0.753
17,0,20-May-2018,1,1,30,Sub17_Trial30_0,0,5,5,-132.790361,False,0.753
17,0,20-May-2018,1,1,30,Sub17_Trial30_0,0,6,6,113.984788,False,0.753
17,0,20-May-2018,1,1,30,Sub17_Trial30_1,1,0,0,16.850244,True,0.753
17,0,20-May-2018,1,1,30,Sub17_Trial30_1,1,1,1,-30.991587,True,0.753
17,0,20-May-2018,1,1,30,Sub17_Trial30_1,1,2,2,35.326623,True,0.753
17,0,20-May-2018,1,1,30,Sub17_Trial30_1,1,3,3,119.550917,True,0.753
17,0,20-May-2018,1,1,30,Sub17_Trial30_1,1,4,4,26.614323,True,0.753
17,0,20-May-2018,1,1,30,Sub17_Trial30_1,1,5,5,53.434983,True,0.753
17,0,20-May-2018,1,1,30,Sub17_Trial30_1,1,6,6,-66.558697,True,0.753
17,0,20-May-2018,1,1,31,Sub17_Trial31_0,0,0,0,-47.597252,True,1.624
17,0,20-May-2018,1,1,31,Sub17_Trial31_0,0,1,1,67.379927,True,1.624
17,0,20-May-2018,1,1,31,Sub17_Trial31_0,0,2,2,-66.403428,True,1.624
17,0,20-May-2018,1,1,31,Sub17_Trial31_0,0,3,3,53.607538,True,1.624
17,0,20-May-2018,1,1,31,Sub17_Trial31_0,0,4,4,-25.953453,True,1.624
17,0,20-May-2018,1,1,31,Sub17_Trial31_0,0,5,5,-7.898889,True,1.624
17,0,20-May-2018,1,1,31,Sub17_Trial31_0,0,6,6,58.599039,True,1.624
17,0,20-May-2018,1,1,31,Sub17_Trial31_1,1,0,0,-21.755643,False,1.624
17,0,20-May-2018,1,1,31,Sub17_Trial31_1,1,1,1,36.861957,False,1.624
17,0,20-May-2018,1,1,31,Sub17_Trial31_1,1,2,2,-104.780239,False,1.624
17,0,20-May-2018,1,1,31,Sub17_Trial31_1,1,3,3,148.807456,False,1.624
17,0,20-May-2018,1,1,31,Sub17_Trial31_1,1,4,4,10.107503,False,1.624
17,0,20-May-2018,1,1,31,Sub17_Trial31_1,1,5,5,-104.998895,False,1.624
17,0,20-May-2018,1,1,31,Sub17_Trial31_1,1,6,6,-113.995917,False,1.624
17,0,20-May-2018,1,1,32,Sub17_Trial32_0,0,0,0,-29.882779,True,2.645
17,0,20-May-2018,1,1,32,Sub17_Trial32_0,0,1,1,-25.768188,True,2.645
17,0,20-May-2018,1,1,32,Sub17_Trial32_0,0,2,2,88.682678,True,2.645
17,0,20-May-2018,1,1,32,Sub17_Trial32_0,0,3,3,65.376701,True,2.645
17,0,20-May-2018,1,1,32,Sub17_Trial32_0,0,4,4,150.50615,True,2.645
17,0,20-May-2018,1,1,32,Sub17_Trial32_0,0,5,5,45.091225,True,2.645
17,0,20-May-2018,1,1,32,Sub17_Trial32_0,0,6,6,68.922829,True,2.645
17,0,20-May-2018,1,1,32,Sub17_Trial32_1,1,0,0,73.8206,False,2.645
17,0,20-May-2018,1,1,32,Sub17_Trial32_1,1,1,1,-2.667006,False,2.645
17,0,20-May-2018,1,1,32,Sub17_Trial32_1,1,2,2,-75.540493,False,2.645
17,0,20-May-2018,1,1,32,Sub17_Trial32_1,1,3,3,18.67991,False,2.645
17,0,20-May-2018,1,1,32,Sub17_Trial32_1,1,4,4,-70.273695,False,2.645
17,0,20-May-2018,1,1,32,Sub17_Trial32_1,1,5,5,13.539634,False,2.645
17,0,20-May-2018,1,1,32,Sub17_Trial32_1,1,6,6,-14.37375,False,2.645
17,0,20-May-2018,1,1,33,Sub17_Trial33_0,0,0,0,-110.380137,False,1.105
17,0,20-May-2018,1,1,33,Sub17_Trial33_0,0,1,1,11.427538,False,1.105
17,0,20-May-2018,1,1,33,Sub17_Trial33_0,0,2,2,77.285025,False,1.105
17,0,20-May-2018,1,1,33,Sub17_Trial33_0,0,3,3,57.500689,False,1.105
17,0,20-May-2018,1,1,33,Sub17_Trial33_0,0,4,4,2.503955,False,1.105
17,0,20-May-2018,1,1,33,Sub17_Trial33_0,0,5,5,13.717576,False,1.105
17,0,20-May-2018,1,1,33,Sub17_Trial33_0,0,6,6,56.107506,False,1.105
17,0,20-May-2018,1,1,33,Sub17_Trial33_1,1,0,0,-10.695966,True,1.105
17,0,20-May-2018,1,1,33,Sub17_Trial33_1,1,1,1,-10.349965,True,1.105
17,0,20-May-2018,1,1,33,Sub17_Trial33_1,1,2,2,-12.869908,True,1.105
17,0,20-May-2018,1,1,33,Sub17_Trial33_1,1,3,3,9.348755,True,1.105
17,0,20-May-2018,1,1,33,Sub17_Trial33_1,1,4,4,-10.1863,True,1.105
17,0,20-May-2018,1,1,33,Sub17_Trial33_1,1,5,5,45.544313,True,1.105
17,0,20-May-2018,1,1,33,Sub17_Trial33_1,1,6,6,-15.517631,True,1.105
17,0,20-May-2018,1,1,34,Sub17_Trial34_0,0,0,0,1.556793,False,0.669
17,0,20-May-2018,1,1,34,Sub17_Trial34_0,0,1,1,-36.158757,False,0.669
17,0,20-May-2018,1,1,34,Sub17_Trial34_0,0,2,2,-21.745625,False,0.669
17,0,20-May-2018,1,1,34,Sub17_Trial34_0,0,3,3,-32.853173,False,0.669
17,0,20-May-2018,1,1,34,Sub17_Trial34_0,0,4,4,-123.740954,False,0.669
17,0,20-May-2018,1,1,34,Sub17_Trial34_0,0,5,5,-40.794032,False,0.669
17,0,20-May-2018,1,1,34,Sub17_Trial34_0,0,6,6,-150.984383,False,0.669
17,0,20-May-2018,1,1,34,Sub17_Trial34_1,1,0,0,15.42746,True,0.669
17,0,20-May-2018,1,1,34,Sub17_Trial34_1,1,1,1,37.617569,True,0.669
17,0,20-May-2018,1,1,34,Sub17_Trial34_1,1,2,2,18.148778,True,0.669
17,0,20-May-2018,1,1,34,Sub17_Trial34_1,1,3,3,153.559046,True,0.669
17,0,20-May-2018,1,1,34,Sub17_Trial34_1,1,4,4,52.85093,True,0.669
17,0,20-May-2018,1,1,34,Sub17_Trial34_1,1,5,5,50.521513,True,0.669
17,0,20-May-2018,1,1,34,Sub17_Trial34_1,1,6,6,86.391032,True,0.669
17,0,20-May-2018,1,1,35,Sub17_Trial35_0,0,0,0,11.907786,True,2.57
17,0,20-May-2018,1,1,35,Sub17_Trial35_0,0,1,1,-163.569545,True,2.57
17,0,20-May-2018,1,1,35,Sub17_Trial35_0,0,2,2,-18.561343,True,2.57
17,0,20-May-2018,1,1,35,Sub17_Trial35_0,0,3,3,74.637459,True,2.57
17,0,20-May-2018,1,1,35,Sub17_Trial35_0,0,4,4,-107.074737,True,2.57
17,0,20-May-2018,1,1,35,Sub17_Trial35_0,0,5,5,-33.165953,True,2.57
17,0,20-May-2018,1,1,35,Sub17_Trial35_0,0,6,6,13.971433,True,2.57
17,0,20-May-2018,1,1,35,Sub17_Trial35_1,1,0,0,-67.022393,False,2.57
17,0,20-May-2018,1,1,35,Sub17_Trial35_1,1,1,1,25.607256,False,2.57
17,0,20-May-2018,1,1,35,Sub17_Trial35_1,1,2,2,196.641653,False,2.57
17,0,20-May-2018,1,1,35,Sub17_Trial35_1,1,3,3,45.437463,False,2.57
17,0,20-May-2018,1,1,35,Sub17_Trial35_1,1,4,4,-72.342042,False,2.57
17,0,20-May-2018,1,1,35,Sub17_Trial35_1,1,5,5,-25.536855,False,2.57
17,0,20-May-2018,1,1,35,Sub17_Trial35_1,1,6,6,-99.2628,False,2.57
17,0,20-May-2018,1,1,36,Sub17_Trial36_0,0,0,0,-51.698197,False,1.058
17,0,20-May-2018,1,1,36,Sub17_Trial36_0,0,1,1,62.174536,False,1.058
17,0,20-May-2018,1,1,36,Sub17_Trial36_0,0,2,2,-26.524173,False,1.058
17,0,20-May-2018,1,1,36,Sub17_Trial36_0,0,3,3,52.903979,False,1.058
17,0,20-May-2018,1,1,36,Sub17_Trial36_0,0,4,4,-113.81156,False,1.058
17,0,20-May-2018,1,1,36,Sub17_Trial36_0,0,5,5,-139.349528,False,1.058
17,0,20-May-2018,1,1,36,Sub17_Trial36_0,0,6,6,-59.228506,False,1.058
17,0,20-May-2018,1,1,36,Sub17_Trial36_1,1,0,0,10.275307,True,1.058
17,0,20-May-2018,1,1,36,Sub17_Trial36_1,1,1,1,5.897302,True,1.058
17,0,20-May-2018,1,1,36,Sub17_Trial36_1,1,2,2,-15.095129,True,1.058
17,0,20-May-2018,1,1,36,Sub17_Trial36_1,1,3,3,-95.265615,True,1.058
17,0,20-May-2018,1,1,36,Sub17_Trial36_1,1,4,4,-138.484321,True,1.058
17,0,20-May-2018,1,1,36,Sub17_Trial36_1,1,5,5,14.381869,True,1.058
17,0,20-May-2018,1,1,36,Sub17_Trial36_1,1,6,6,88.055825,True,1.058
17,0,20-May-2018,1,1,37,Sub17_Trial37_0,0,0,0,-56.13602,True,2.09
17,0,20-May-2018,1,1,37,Sub17_Trial37_0,0,1,1,-112.629658,True,2.09
17,0,20-May-2018,1,1,37,Sub17_Trial37_0,0,2,2,40.157809,True,2.09
17,0,20-May-2018,1,1,37,Sub17_Trial37_0,0,3,3,-4.632759,True,2.09
17,0,20-May-2018,1,1,37,Sub17_Trial37_0,0,4,4,-31.504784,True,2.09
17,0,20-May-2018,1,1,37,Sub17_Trial37_0,0,5,5,-88.899933,True,2.09
17,0,20-May-2018,1,1,37,Sub17_Trial37_0,0,6,6,-76.189529,True,2.09
17,0,20-May-2018,1,1,37,Sub17_Trial37_1,1,0,0,67.085785,False,2.09
17,0,20-May-2018,1,1,37,Sub17_Trial37_1,1,1,1,-48.408679,False,2.09
17,0,20-May-2018,1,1,37,Sub17_Trial37_1,1,2,2,-57.462416,False,2.09
17,0,20-May-2018,1,1,37,Sub17_Trial37_1,1,3,3,-57.070381,False,2.09
17,0,20-May-2018,1,1,37,Sub17_Trial37_1,1,4,4,-110.524455,False,2.09
17,0,20-May-2018,1,1,37,Sub17_Trial37_1,1,5,5,-60.992329,False,2.09
17,0,20-May-2018,1,1,37,Sub17_Trial37_1,1,6,6,141.336507,False,2.09
17,0,20-May-2018,1,1,38,Sub17_Trial38_0,0,0,0,23.248892,True,2.087
17,0,20-May-2018,1,1,38,Sub17_Trial38_0,0,1,1,-63.37566,True,2.087
17,0,20-May-2018,1,1,38,Sub17_Trial38_0,0,2,2,87.047983,True,2.087
17,0,20-May-2018,1,1,38,Sub17_Trial38_0,0,3,3,13.419727,True,2.087
17,0,20-May-2018,1,1,38,Sub17_Trial38_0,0,4,4,174.351326,True,2.087
17,0,20-May-2018,1,1,38,Sub17_Trial38_0,0,5,5,169.05128,True,2.087
17,0,20-May-2018,1,1,38,Sub17_Trial38_0,0,6,6,43.028024,True,2.087
17,0,20-May-2018,1,1,38,Sub17_Trial38_1,1,0,0,48.675407,False,2.087
17,0,20-May-2018,1,1,38,Sub17_Trial38_1,1,1,1,6.628416,False,2.087
17,0,20-May-2018,1,1,38,Sub17_Trial38_1,1,2,2,25.733376,False,2.087
17,0,20-May-2018,1,1,38,Sub17_Trial38_1,1,3,3,-10.053001,False,2.087
17,0,20-May-2018,1,1,38,Sub17_Trial38_1,1,4,4,25.535265,False,2.087
17,0,20-May-2018,1,1,38,Sub17_Trial38_1,1,5,5,156.556921,False,2.087
17,0,20-May-2018,1,1,38,Sub17_Trial38_1,1,6,6,-75.177118,False,2.087
17,0,20-May-2018,1,1,39,Sub17_Trial39_0,0,0,0,64.26433,True,1.195
17,0,20-May-2018,1,1,39,Sub17_Trial39_0,0,1,1,-11.208668,True,1.195
17,0,20-May-2018,1,1,39,Sub17_Trial39_0,0,2,2,21.96206,True,1.195
17,0,20-May-2018,1,1,39,Sub17_Trial39_0,0,3,3,46.75596,True,1.195
17,0,20-May-2018,1,1,39,Sub17_Trial39_0,0,4,4,42.103188,True,1.195
17,0,20-May-2018,1,1,39,Sub17_Trial39_0,0,5,5,26.900775,True,1.195
17,0,20-May-2018,1,1,39,Sub17_Trial39_0,0,6,6,7.434043,True,1.195
17,0,20-May-2018,1,1,39,Sub17_Trial39_1,1,0,0,107.985752,False,1.195
17,0,20-May-2018,1,1,39,Sub17_Trial39_1,1,1,1,-135.113012,False,1.195
17,0,20-May-2018,1,1,39,Sub17_Trial39_1,1,2,2,109.79002,False,1.195
17,0,20-May-2018,1,1,39,Sub17_Trial39_1,1,3,3,-62.482851,False,1.195
17,0,20-May-2018,1,1,39,Sub17_Trial39_1,1,4,4,-55.446419,False,1.195
17,0,20-May-2018,1,1,39,Sub17_Trial39_1,1,5,5,-137.620306,False,1.195
17,0,20-May-2018,1,1,39,Sub17_Trial39_1,1,6,6,-96.72605,False,1.195
17,0,20-May-2018,1,1,40,Sub17_Trial40_0,0,0,0,94.383004,True,0.983
17,0,20-May-2018,1,1,40,Sub17_Trial40_0,0,1,1,3.137991,True,0.983
17,0,20-May-2018,1,1,40,Sub17_Trial40_0,0,2,2,103.875597,True,0.983
17,0,20-May-2018,1,1,40,Sub17_Trial40_0,0,3,3,91.146987,True,0.983
17,0,20-May-2018,1,1,40,Sub17_Trial40_0,0,4,4,0.507857,True,0.983
17,0,20-May-2018,1,1,40,Sub17_Trial40_0,0,5,5,33.152865,True,0.983
17,0,20-May-2018,1,1,40,Sub17_Trial40_0,0,6,6,-176.950643,True,0.983
17,0,20-May-2018,1,1,40,Sub17_Trial40_1,1,0,0,94.801498,False,0.983
17,0,20-May-2018,1,1,40,Sub17_Trial40_1,1,1,1,145.598442,False,0.983
17,0,20-May-2018,1,1,40,Sub17_Trial40_1,1,2,2,55.384027,False,0.983
17,0,20-May-2018,1,1,40,Sub17_Trial40_1,1,3,3,85.239698,False,0.983
17,0,20-May-2018,1,1,40,Sub17_Trial40_1,1,4,4,-192.083651,False,0.983
17,0,20-May-2018,1,1,40,Sub17_Trial40_1,1,5,5,-73.937739,False,0.983
17,0,20-May-2018,1,1,40,Sub17_Trial40_1,1,6,6,32.649421,False,0.983
17,0,20-May-2018,1,1,41,Sub17_Trial41_0,0,0,0,122.906551,True,3.539
17,0,20-May-2018,1,1,41,Sub17_Trial41_0,0,1,1,78.774103,True,3.539
17,0,20-May-2018,1,1,41,Sub17_Trial41_0,0,2,2,-42.408603,True,3.539
17,0,20-May-2018,1,1,41,Sub17_Trial41_0,0,3,3,-105.963517,True,3.539
17,0,20-May-2018,1,1,41,Sub17_Trial41_0,0,4,4,3.74757,True,3.539
17,0,20-May-2018,1,1,41,Sub17_Trial41_0,0,5,5,102.030674,True,3.539
17,0,20-May-2018,1,1,41,Sub17_Trial41_0,0,6,6,167.449484,True,3.539
17,0,20-May-2018,1,1,41,Sub17_Trial41_1,1,0,0,-123.474413,False,3.539
17,0,20-May-2018,1,1,41,Sub17_Trial41_1,1,1,1,58.902275,False,3.539
17,0,20-May-2018,1,1,41,Sub17_Trial41_1,1,2,2,131.457016,False,3.539
17,0,20-May-2018,1,1,41,Sub17_Trial41_1,1,3,3,-66.274789,False,3.539
17,0,20-May-2018,1,1,41,Sub17_Trial41_1,1,4,4,-44.687112,False,3.539
17,0,20-May-2018,1,1,41,Sub17_Trial41_1,1,5,5,82.579241,False,3.539
17,0,20-May-2018,1,1,41,Sub17_Trial41_1,1,6,6,30.753062,False,3.539
17,0,20-May-2018,1,1,42,Sub17_Trial42_0,0,0,0,-106.133085,True,0.888
17,0,20-May-2018,1,1,42,Sub17_Trial42_0,0,1,1,13.862085,True,0.888
17,0,20-May-2018,1,1,42,Sub17_Trial42_0,0,2,2,-56.820515,True,0.888
17,0,20-May-2018,1,1,42,Sub17_Trial42_0,0,3,3,-107.515767,True,0.888
17,0,20-May-2018,1,1,42,Sub17_Trial42_0,0,4,4,132.323828,True,0.888
17,0,20-May-2018,1,1,42,Sub17_Trial42_0,0,5,5,-5.497296,True,0.888
17,0,20-May-2018,1,1,42,Sub17_Trial42_0,0,6,6,39.608209,True,0.888
17,0,20-May-2018,1,1,42,Sub17_Trial42_1,1,0,0,-59.5315,False,0.888
17,0,20-May-2018,1,1,42,Sub17_Trial42_1,1,1,1,104.898313,False,0.888
17,0,20-May-2018,1,1,42,Sub17_Trial42_1,1,2,2,90.436892,False,0.888
17,0,20-May-2018,1,1,42,Sub17_Trial42_1,1,3,3,17.392719,False,0.888
17,0,20-May-2018,1,1,42,Sub17_Trial42_1,1,4,4,65.126681,False,0.888
17,0,20-May-2018,1,1,42,Sub17_Trial42_1,1,5,5,-37.42919,False,0.888
17,0,20-May-2018,1,1,42,Sub17_Trial42_1,1,6,6,-33.864253,False,0.888
17,0,20-May-2018,1,1,43,Sub17_Trial43_0,0,0,0,-92.512567,False,1.01
17,0,20-May-2018,1,1,43,Sub17_Trial43_0,0,1,1,-69.285914,False,1.01
17,0,20-May-2018,1,1,43,Sub17_Trial43_0,0,2,2,-46.6157,False,1.01
17,0,20-May-2018,1,1,43,Sub17_Trial43_0,0,3,3,42.899682,False,1.01
17,0,20-May-2018,1,1,43,Sub17_Trial43_0,0,4,4,-173.202687,False,1.01
17,0,20-May-2018,1,1,43,Sub17_Trial43_0,0,5,5,66.54414,False,1.01
17,0,20-May-2018,1,1,43,Sub17_Trial43_0,0,6,6,45.268836,False,1.01
17,0,20-May-2018,1,1,43,Sub17_Trial43_1,1,0,0,-37.680315,True,1.01
17,0,20-May-2018,1,1,43,Sub17_Trial43_1,1,1,1,-65.00525,True,1.01
17,0,20-May-2018,1,1,43,Sub17_Trial43_1,1,2,2,63.689826,True,1.01
17,0,20-May-2018,1,1,43,Sub17_Trial43_1,1,3,3,-109.678159,True,1.01
17,0,20-May-2018,1,1,43,Sub17_Trial43_1,1,4,4,72.090708,True,1.01
17,0,20-May-2018,1,1,43,Sub17_Trial43_1,1,5,5,167.3237,True,1.01
17,0,20-May-2018,1,1,43,Sub17_Trial43_1,1,6,6,19.238584,True,1.01
17,0,20-May-2018,1,1,44,Sub17_Trial44_0,0,0,0,27.290468,False,0.771
17,0,20-May-2018,1,1,44,Sub17_Trial44_0,0,1,1,-81.49372,False,0.771
17,0,20-May-2018,1,1,44,Sub17_Trial44_0,0,2,2,-55.722017,False,0.771
17,0,20-May-2018,1,1,44,Sub17_Trial44_0,0,3,3,122.737862,False,0.771
17,0,20-May-2018,1,1,44,Sub17_Trial44_0,0,4,4,131.063492,False,0.771
17,0,20-May-2018,1,1,44,Sub17_Trial44_0,0,5,5,-84.470949,False,0.771
17,0,20-May-2018,1,1,44,Sub17_Trial44_0,0,6,6,197.350121,False,0.771
17,0,20-May-2018,1,1,44,Sub17_Trial44_1,1,0,0,2.450635,True,0.771
17,0,20-May-2018,1,1,44,Sub17_Trial44_1,1,1,1,89.575569,True,0.771
17,0,20-May-2018,1,1,44,Sub17_Trial44_1,1,2,2,36.833192,True,0.771
17,0,20-May-2018,1,1,44,Sub17_Trial44_1,1,3,3,-33.267528,True,0.771
17,0,20-May-2018,1,1,44,Sub17_Trial44_1,1,4,4,-194.948933,True,0.771
17,0,20-May-2018,1,1,44,Sub17_Trial44_1,1,5,5,93.201665,True,0.771
17,0,20-May-2018,1,1,44,Sub17_Trial44_1,1,6,6,-76.64088,True,0.771
17,0,20-May-2018,1,1,45,Sub17_Trial45_0,0,0,0,-100.155625,True,1.866
17,0,20-May-2018,1,1,45,Sub17_Trial45_0,0,1,1,74.626436,True,1.866
17,0,20-May-2018,1,1,45,Sub17_Trial45_0,0,2,2,113.136556,True,1.866
17,0,20-May-2018,1,1,45,Sub17_Trial45_0,0,3,3,176.911437,True,1.866
17,0,20-May-2018,1,1,45,Sub17_Trial45_0,0,4,4,-18.561077,True,1.866
17,0,20-May-2018,1,1,45,Sub17_Trial45_0,0,5,5,107.837132,True,1.866
17,0,20-May-2018,1,1,45,Sub17_Trial45_0,0,6,6,-119.390069,True,1.866
17,0,20-May-2018,1,1,45,Sub17_Trial45_1,1,0,0,137.028468,False,1.866
17,0,20-May-2018,1,1,45,Sub17_Trial45_1,1,1,1,43.4252,False,1.866
17,0,20-May-2018,1,1,45,Sub17_Trial45_1,1,2,2,-6.202548,False,1.866
17,0,20-May-2018,1,1,45,Sub17_Trial45_1,1,3,3,155.869193,False,1.866
17,0,20-May-2018,1,1,45,Sub17_Trial45_1,1,4,4,24.663823,False,1.866
17,0,20-May-2018,1,1,45,Sub17_Trial45_1,1,5,5,110.262059,False,1.866
17,0,20-May-2018,1,1,45,Sub17_Trial45_1,1,6,6,-31.258316,False,1.866
17,0,20-May-2018,1,1,46,Sub17_Trial46_0,0,0,0,-54.264815,False,2.293
17,0,20-May-2018,1,1,46,Sub17_Trial46_0,0,1,1,-114.806441,False,2.293
17,0,20-May-2018,1,1,46,Sub17_Trial46_0,0,2,2,-178.228571,False,2.293
17,0,20-May-2018,1,1,46,Sub17_Trial46_0,0,3,3,137.885067,False,2.293
17,0,20-May-2018,1,1,46,Sub17_Trial46_0,0,4,4,71.403932,False,2.293
17,0,20-May-2018,1,1,46,Sub17_Trial46_0,0,5,5,78.814751,False,2.293
17,0,20-May-2018,1,1,46,Sub17_Trial46_0,0,6,6,-96.616468,False,2.293
17,0,20-May-2018,1,1,46,Sub17_Trial46_1,1,0,0,65.634593,True,2.293
17,0,20-May-2018,1,1,46,Sub17_Trial46_1,1,1,1,45.736513,True,2.293
17,0,20-May-2018,1,1,46,Sub17_Trial46_1,1,2,2,-133.076921,True,2.293
17,0,20-May-2018,1,1,46,Sub17_Trial46_1,1,3,3,-31.620236,True,2.293
17,0,20-May-2018,1,1,46,Sub17_Trial46_1,1,4,4,-28.635434,True,2.293
17,0,20-May-2018,1,1,46,Sub17_Trial46_1,1,5,5,162.639335,True,2.293
17,0,20-May-2018,1,1,46,Sub17_Trial46_1,1,6,6,-14.477477,True,2.293
17,0,20-May-2018,1,1,47,Sub17_Trial47_0,0,0,0,49.932016,False,1.265
17,0,20-May-2018,1,1,47,Sub17_Trial47_0,0,1,1,-19.192341,False,1.265
17,0,20-May-2018,1,1,47,Sub17_Trial47_0,0,2,2,26.090754,False,1.265
17,0,20-May-2018,1,1,47,Sub17_Trial47_0,0,3,3,-51.836431,False,1.265
17,0,20-May-2018,1,1,47,Sub17_Trial47_0,0,4,4,-80.90776,False,1.265
17,0,20-May-2018,1,1,47,Sub17_Trial47_0,0,5,5,-36.538565,False,1.265
17,0,20-May-2018,1,1,47,Sub17_Trial47_0,0,6,6,-4.044941,False,1.265
17,0,20-May-2018,1,1,47,Sub17_Trial47_1,1,0,0,2.557534,True,1.265
17,0,20-May-2018,1,1,47,Sub17_Trial47_1,1,1,1,100.084177,True,1.265
17,0,20-May-2018,1,1,47,Sub17_Trial47_1,1,2,2,90.794567,True,1.265
17,0,20-May-2018,1,1,47,Sub17_Trial47_1,1,3,3,-40.805141,True,1.265
17,0,20-May-2018,1,1,47,Sub17_Trial47_1,1,4,4,99.003036,True,1.265
17,0,20-May-2018,1,1,47,Sub17_Trial47_1,1,5,5,7.625922,True,1.265
17,0,20-May-2018,1,1,47,Sub17_Trial47_1,1,6,6,80.145383,True,1.265
17,0,20-May-2018,1,1,48,Sub17_Trial48_0,0,0,0,94.520049,False,0.88
17,0,20-May-2018,1,1,48,Sub17_Trial48_0,0,1,1,-14.438894,False,0.88
17,0,20-May-2018,1,1,48,Sub17_Trial48_0,0,2,2,121.117673,False,0.88
17,0,20-May-2018,1,1,48,Sub17_Trial48_0,0,3,3,-163.671099,False,0.88
17,0,20-May-2018,1,1,48,Sub17_Trial48_0,0,4,4,-16.683563,False,0.88
17,0,20-May-2018,1,1,48,Sub17_Trial48_0,0,5,5,93.686274,False,0.88
17,0,20-May-2018,1,1,48,Sub17_Trial48_0,0,6,6,40.113403,False,0.88
17,0,20-May-2018,1,1,48,Sub17_Trial48_1,1,0,0,83.34638,True,0.88
17,0,20-May-2018,1,1,48,Sub17_Trial48_1,1,1,1,14.154295,True,0.88
17,0,20-May-2018,1,1,48,Sub17_Trial48_1,1,2,2,-43.821522,True,0.88
17,0,20-May-2018,1,1,48,Sub17_Trial48_1,1,3,3,-15.573486,True,0.88
17,0,20-May-2018,1,1,48,Sub17_Trial48_1,1,4,4,83.563899,True,0.88
17,0,20-May-2018,1,1,48,Sub17_Trial48_1,1,5,5,161.528276,True,0.88
17,0,20-May-2018,1,1,48,Sub17_Trial48_1,1,6,6,6.659379,True,0.88
17,0,20-May-2018,1,1,49,Sub17_Trial49_0,0,0,0,-23.433032,True,1.365
17,0,20-May-2018,1,1,49,Sub17_Trial49_0,0,1,1,30.658754,True,1.365
17,0,20-May-2018,1,1,49,Sub17_Trial49_0,0,2,2,-6.129287,True,1.365
17,0,20-May-2018,1,1,49,Sub17_Trial49_0,0,3,3,89.065424,True,1.365
17,0,20-May-2018,1,1,49,Sub17_Trial49_0,0,4,4,167.490516,True,1.365
17,0,20-May-2018,1,1,49,Sub17_Trial49_0,0,5,5,24.18429,True,1.365
17,0,20-May-2018,1,1,49,Sub17_Trial49_0,0,6,6,79.942048,True,1.365
17,0,20-May-2018,1,1,49,Sub17_Trial49_1,1,0,0,-68.762407,False,1.365
17,0,20-May-2018,1,1,49,Sub17_Trial49_1,1,1,1,-46.324328,False,1.365
17,0,20-May-2018,1,1,49,Sub17_Trial49_1,1,2,2,41.738559,False,1.365
17,0,20-May-2018,1,1,49,Sub17_Trial49_1,1,3,3,107.158514,False,1.365
17,0,20-May-2018,1,1,49,Sub17_Trial49_1,1,4,4,12.791704,False,1.365
17,0,20-May-2018,1,1,49,Sub17_Trial49_1,1,5,5,-81.759271,False,1.365
17,0,20-May-2018,1,1,49,Sub17_Trial49_1,1,6,6,15.606423,False,1.365
17,0,20-May-2018,1,1,50,Sub17_Trial50_0,0,0,0,15.715362,True,1.376
17,0,20-May-2018,1,1,50,Sub17_Trial50_0,0,1,1,119.501066,True,1.376
17,0,20-May-2018,1,1,50,Sub17_Trial50_0,0,2,2,87.214238,True,1.376
17,0,20-May-2018,1,1,50,Sub17_Trial50_0,0,3,3,-39.293553,True,1.376
17,0,20-May-2018,1,1,50,Sub17_Trial50_0,0,4,4,-124.593692,True,1.376
17,0,20-May-2018,1,1,50,Sub17_Trial50_0,0,5,5,-10.260508,True,1.376
17,0,20-May-2018,1,1,50,Sub17_Trial50_0,0,6,6,-182.736659,True,1.376
17,0,20-May-2018,1,1,50,Sub17_Trial50_1,1,0,0,-119.998219,False,1.376
17,0,20-May-2018,1,1,50,Sub17_Trial50_1,1,1,1,38.263,False,1.376
17,0,20-May-2018,1,1,50,Sub17_Trial50_1,1,2,2,14.049289,False,1.376
17,0,20-May-2018,1,1,50,Sub17_Trial50_1,1,3,3,-34.590388,False,1.376
17,0,20-May-2018,1,1,50,Sub17_Trial50_1,1,4,4,-50.059534,False,1.376
17,0,20-May-2018,1,1,50,Sub17_Trial50_1,1,5,5,-41.863767,False,1.376
17,0,20-May-2018,1,1,50,Sub17_Trial50_1,1,6,6,0.232334,False,1.376
17,0,20-May-2018,1,2,51,Sub17_Trial51_0,0,0,0,67.063221,False,1.262
17,0,20-May-2018,1,2,51,Sub17_Trial51_0,0,1,1,13.635398,False,1.262
17,0,20-May-2018,1,2,51,Sub17_Trial51_0,0,2,2,-124.62306,False,1.262
17,0,20-May-2018,1,2,51,Sub17_Trial51_0,0,3,3,-103.549145,False,1.262
17,0,20-May-2018,1,2,51,Sub17_Trial51_0,0,4,4,-23.145599,False,1.262
17,0,20-May-2018,1,2,51,Sub17_Trial51_0,0,5,5,-21.685366,False,1.262
17,0,20-May-2018,1,2,51,Sub17_Trial51_0,0,6,6,0.405419,False,1.262
17,0,20-May-2018,1,2,51,Sub17_Trial51_1,1,0,0,135.274551,True,1.262
17,0,20-May-2018,1,2,51,Sub17_Trial51_1,1,1,1,102.757835,True,1.262
17,0,20-May-2018,1,2,51,Sub17_Trial51_1,1,2,2,135.183151,True,1.262
17,0,20-May-2018,1,2,51,Sub17_Trial51_1,1,3,3,63.754866,True,1.262
17,0,20-May-2018,1,2,51,Sub17_Trial51_1,1,4,4,54.810093,True,1.262
17,0,20-May-2018,1,2,51,Sub17_Trial51_1,1,5,5,30.697775,True,1.262
17,0,20-May-2018,1,2,51,Sub17_Trial51_1,1,6,6,40.027902,True,1.262
17,0,20-May-2018,1,2,52,Sub17_Trial52_0,0,0,0,-3.429314,False,0.868
17,0,20-May-2018,1,2,52,Sub17_Trial52_0,0,1,1,55.21965,False,0.868
17,0,20-May-2018,1,2,52,Sub17_Trial52_0,0,2,2,-91.132282,False,0.868
17,0,20-May-2018,1,2,52,Sub17_Trial52_0,0,3,3,-47.625415,False,0.868
17,0,20-May-2018,1,2,52,Sub17_Trial52_0,0,4,4,-193.097308,False,0.868
17,0,20-May-2018,1,2,52,Sub17_Trial52_0,0,5,5,-131.942445,False,0.868
17,0,20-May-2018,1,2,52,Sub17_Trial52_0,0,6,6,-25.342306,False,0.868
17,0,20-May-2018,1,2,52,Sub17_Trial52_1,1,0,0,-160.667518,True,0.868
17,0,20-May-2018,1,2,52,Sub17_Trial52_1,1,1,1,-18.109733,True,0.868
17,0,20-May-2018,1,2,52,Sub17_Trial52_1,1,2,2,-35.480759,True,0.868
17,0,20-May-2018,1,2,52,Sub17_Trial52_1,1,3,3,85.789181,True,0.868
17,0,20-May-2018,1,2,52,Sub17_Trial52_1,1,4,4,36.025448,True,0.868
17,0,20-May-2018,1,2,52,Sub17_Trial52_1,1,5,5,68.379288,True,0.868
17,0,20-May-2018,1,2,52,Sub17_Trial52_1,1,6,6,-137.998526,True,0.868
17,0,20-May-2018,1,2,53,Sub17_Trial53_0,0,0,0,165.606161,True,1.39
17,0,20-May-2018,1,2,53,Sub17_Trial53_0,0,1,1,114.062391,True,1.39
17,0,20-May-2018,1,2,53,Sub17_Trial53_0,0,2,2,-47.836962,True,1.39
17,0,20-May-2018,1,2,53,Sub17_Trial53_0,0,3,3,89.349137,True,1.39
17,0,20-May-2018,1,2,53,Sub17_Trial53_0,0,4,4,29.440174,True,1.39
17,0,20-May-2018,1,2,53,Sub17_Trial53_0,0,5,5,96.118391,True,1.39
17,0,20-May-2018,1,2,53,Sub17_Trial53_0,0,6,6,-140.632395,True,1.39
17,0,20-May-2018,1,2,53,Sub17_Trial53_1,1,0,0,18.729204,False,1.39
17,0,20-May-2018,1,2,53,Sub17_Trial53_1,1,1,1,-163.307447,False,1.39
17,0,20-May-2018,1,2,53,Sub17_Trial53_1,1,2,2,30.595932,False,1.39
17,0,20-May-2018,1,2,53,Sub17_Trial53_1,1,3,3,-90.392619,False,1.39
17,0,20-May-2018,1,2,53,Sub17_Trial53_1,1,4,4,32.496767,False,1.39
17,0,20-May-2018,1,2,53,Sub17_Trial53_1,1,5,5,-93.032738,False,1.39
17,0,20-May-2018,1,2,53,Sub17_Trial53_1,1,6,6,8.790556,False,1.39
17,0,20-May-2018,1,2,54,Sub17_Trial54_0,0,0,0,190.396066,False,0.56
17,0,20-May-2018,1,2,54,Sub17_Trial54_0,0,1,1,22.711033,False,0.56
17,0,20-May-2018,1,2,54,Sub17_Trial54_0,0,2,2,12.365861,False,0.56
17,0,20-May-2018,1,2,54,Sub17_Trial54_0,0,3,3,32.111297,False,0.56
17,0,20-May-2018,1,2,54,Sub17_Trial54_0,0,4,4,42.211955,False,0.56
17,0,20-May-2018,1,2,54,Sub17_Trial54_0,0,5,5,-36.271216,False,0.56
17,0,20-May-2018,1,2,54,Sub17_Trial54_0,0,6,6,-78.006416,False,0.56
17,0,20-May-2018,1,2,54,Sub17_Trial54_1,1,0,0,0.964276,True,0.56
17,0,20-May-2018,1,2,54,Sub17_Trial54_1,1,1,1,-114.023404,True,0.56
17,0,20-May-2018,1,2,54,Sub17_Trial54_1,1,2,2,67.383964,True,0.56
17,0,20-May-2018,1,2,54,Sub17_Trial54_1,1,3,3,48.599532,True,0.56
17,0,20-May-2018,1,2,54,Sub17_Trial54_1,1,4,4,56.419205,True,0.56
17,0,20-May-2018,1,2,54,Sub17_Trial54_1,1,5,5,59.523,True,0.56
17,0,20-May-2018,1,2,54,Sub17_Trial54_1,1,6,6,56.985931,True,0.56
17,0,20-May-2018,1,2,55,Sub17_Trial55_0,0,0,0,117.491388,False,0.37
17,0,20-May-2018,1,2,55,Sub17_Trial55_0,0,1,1,-157.070944,False,0.37
17,0,20-May-2018,1,2,55,Sub17_Trial55_0,0,2,2,-114.357922,False,0.37
17,0,20-May-2018,1,2,55,Sub17_Trial55_0,0,3,3,0.604435,False,0.37
17,0,20-May-2018,1,2,55,Sub17_Trial55_0,0,4,4,27.357096,False,0.37
17,0,20-May-2018,1,2,55,Sub17_Trial55_0,0,5,5,-50.709991,False,0.37
17,0,20-May-2018,1,2,55,Sub17_Trial55_0,0,6,6,-0.867398,False,0.37
17,0,20-May-2018,1,2,55,Sub17_Trial55_1,1,0,0,-107.088629,True,0.37
17,0,20-May-2018,1,2,55,Sub17_Trial55_1,1,1,1,-58.329563,True,0.37
17,0,20-May-2018,1,2,55,Sub17_Trial55_1,1,2,2,80.395019,True,0.37
17,0,20-May-2018,1,2,55,Sub17_Trial55_1,1,3,3,-26.926962,True,0.37
17,0,20-May-2018,1,2,55,Sub17_Trial55_1,1,4,4,-40.407114,True,0.37
17,0,20-May-2018,1,2,55,Sub17_Trial55_1,1,5,5,129.33275,True,0.37
17,0,20-May-2018,1,2,55,Sub17_Trial55_1,1,6,6,97.646958,True,0.37
17,0,20-May-2018,1,2,56,Sub17_Trial56_0,0,0,0,-64.566342,False,0.287
17,0,20-May-2018,1,2,56,Sub17_Trial56_0,0,1,1,146.32366,False,0.287
17,0,20-May-2018,1,2,56,Sub17_Trial56_0,0,2,2,71.369293,False,0.287
17,0,20-May-2018,1,2,56,Sub17_Trial56_0,0,3,3,-97.681528,False,0.287
17,0,20-May-2018,1,2,56,Sub17_Trial56_0,0,4,4,-32.996477,False,0.287
17,0,20-May-2018,1,2,56,Sub17_Trial56_0,0,5,5,-26.817957,False,0.287
17,0,20-May-2018,1,2,56,Sub17_Trial56_0,0,6,6,-11.856298,False,0.287
17,0,20-May-2018,1,2,56,Sub17_Trial56_1,1,0,0,12.049004,True,0.287
17,0,20-May-2018,1,2,56,Sub17_Trial56_1,1,1,1,190.847504,True,0.287
17,0,20-May-2018,1,2,56,Sub17_Trial56_1,1,2,2,-162.901066,True,0.287
17,0,20-May-2018,1,2,56,Sub17_Trial56_1,1,3,3,-84.425431,True,0.287
17,0,20-May-2018,1,2,56,Sub17_Trial56_1,1,4,4,69.614307,True,0.287
17,0,20-May-2018,1,2,56,Sub17_Trial56_1,1,5,5,85.483188,True,0.287
17,0,20-May-2018,1,2,56,Sub17_Trial56_1,1,6,6,99.741889,True,0.287
17,0,20-May-2018,1,2,57,Sub17_Trial57_0,0,0,0,115.49957,True,1.177
17,0,20-May-2018,1,2,57,Sub17_Trial57_0,0,1,1,-112.66056,True,1.177
17,0,20-May-2018,1,2,57,Sub17_Trial57_0,0,2,2,146.169504,True,1.177
17,0,20-May-2018,1,2,57,Sub17_Trial57_0,0,3,3,46.751475,True,1.177
17,0,20-May-2018,1,2,57,Sub17_Trial57_0,0,4,4,68.437621,True,1.177
17,0,20-May-2018,1,2,57,Sub17_Trial57_0,0,5,5,0.54467,True,1.177
17,0,20-May-2018,1,2,57,Sub17_Trial57_0,0,6,6,64.743165,True,1.177
17,0,20-May-2018,1,2,57,Sub17_Trial57_1,1,0,0,99.24784,False,1.177
17,0,20-May-2018,1,2,57,Sub17_Trial57_1,1,1,1,-95.452814,False,1.177
17,0,20-May-2018,1,2,57,Sub17_Trial57_1,1,2,2,115.163003,False,1.177
17,0,20-May-2018,1,2,57,Sub17_Trial57_1,1,3,3,-78.180457,False,1.177
17,0,20-May-2018,1,2,57,Sub17_Trial57_1,1,4,4,-22.184077,False,1.177
17,0,20-May-2018,1,2,57,Sub17_Trial57_1,1,5,5,-106.204107,False,1.177
17,0,20-May-2018,1,2,57,Sub17_Trial57_1,1,6,6,-64.071403,False,1.177
17,0,20-May-2018,1,2,58,Sub17_Trial58_0,0,0,0,-5.460351,True,1.63
17,0,20-May-2018,1,2,58,Sub17_Trial58_0,0,1,1,55.234217,True,1.63
17,0,20-May-2018,1,2,58,Sub17_Trial58_0,0,2,2,78.767333,True,1.63
17,0,20-May-2018,1,2,58,Sub17_Trial58_0,0,3,3,121.556388,True,1.63
17,0,20-May-2018,1,2,58,Sub17_Trial58_0,0,4,4,42.661465,True,1.63
17,0,20-May-2018,1,2,58,Sub17_Trial58_0,0,5,5,42.221083,True,1.63
17,0,20-May-2018,1,2,58,Sub17_Trial58_0,0,6,6,-90.534982,True,1.63
17,0,20-May-2018,1,2,58,Sub17_Trial58_1,1,0,0,-112.429215,False,1.63
17,0,20-May-2018,1,2,58,Sub17_Trial58_1,1,1,1,-14.519626,False,1.63
17,0,20-May-2018,1,2,58,Sub17_Trial58_1,1,2,2,-25.878594,False,1.63
17,0,20-May-2018,1,2,58,Sub17_Trial58_1,1,3,3,73.582212,False,1.63
17,0,20-May-2018,1,2,58,Sub17_Trial58_1,1,4,4,-35.021264,False,1.63
17,0,20-May-2018,1,2,58,Sub17_Trial58_1,1,5,5,70.464802,False,1.63
17,0,20-May-2018,1,2,58,Sub17_Trial58_1,1,6,6,-97.2194,False,1.63
17,0,20-May-2018,1,2,59,Sub17_Trial59_0,0,0,0,63.586166,True,0.616
17,0,20-May-2018,1,2,59,Sub17_Trial59_0,0,1,1,1.216196,True,0.616
17,0,20-May-2018,1,2,59,Sub17_Trial59_0,0,2,2,-33.376209,True,0.616
17,0,20-May-2018,1,2,59,Sub17_Trial59_0,0,3,3,-11.658924,True,0.616
17,0,20-May-2018,1,2,59,Sub17_Trial59_0,0,4,4,98.511617,True,0.616
17,0,20-May-2018,1,2,59,Sub17_Trial59_0,0,5,5,22.597578,True,0.616
17,0,20-May-2018,1,2,59,Sub17_Trial59_0,0,6,6,-24.23567,True,0.616
17,0,20-May-2018,1,2,59,Sub17_Trial59_1,1,0,0,2.196643,False,0.616
17,0,20-May-2018,1,2,59,Sub17_Trial59_1,1,1,1,131.408579,False,0.616
17,0,20-May-2018,1,2,59,Sub17_Trial59_1,1,2,2,-81.312195,False,0.616
17,0,20-May-2018,1,2,59,Sub17_Trial59_1,1,3,3,11.917684,False,0.616
17,0,20-May-2018,1,2,59,Sub17_Trial59_1,1,4,4,-43.798373,False,0.616
17,0,20-May-2018,1,2,59,Sub17_Trial59_1,1,5,5,3.887485,False,0.616
17,0,20-May-2018,1,2,59,Sub17_Trial59_1,1,6,6,-88.011764,False,0.616
17,0,20-May-2018,1,2,60,Sub17_Trial60_0,0,0,0,-103.833606,False,0.803
17,0,20-May-2018,1,2,60,Sub17_Trial60_0,0,1,1,102.302661,False,0.803
17,0,20-May-2018,1,2,60,Sub17_Trial60_0,0,2,2,78.429358,False,0.803
17,0,20-May-2018,1,2,60,Sub17_Trial60_0,0,3,3,70.350818,False,0.803
17,0,20-May-2018,1,2,60,Sub17_Trial60_0,0,4,4,-45.616505,False,0.803
17,0,20-May-2018,1,2,60,Sub17_Trial60_0,0,5,5,3.89778,False,0.803
17,0,20-May-2018,1,2,60,Sub17_Trial60_0,0,6,6,-24.911758,False,0.803
17,0,20-May-2018,1,2,60,Sub17_Trial60_1,1,0,0,69.005516,True,0.803
17,0,20-May-2018,1,2,60,Sub17_Trial60_1,1,1,1,-115.909331,True,0.803
17,0,20-May-2018,1,2,60,Sub17_Trial60_1,1,2,2,111.856381,True,0.803
17,0,20-May-2018,1,2,60,Sub17_Trial60_1,1,3,3,-77.784915,True,0.803
17,0,20-May-2018,1,2,60,Sub17_Trial60_1,1,4,4,-46.51409,True,0.803
17,0,20-May-2018,1,2,60,Sub17_Trial60_1,1,5,5,87.437255,True,0.803
17,0,20-May-2018,1,2,60,Sub17_Trial60_1,1,6,6,-8.399822,True,0.803
17,0,20-May-2018,1,2,61,Sub17_Trial61_0,0,0,0,35.762479,True,1.453
17,0,20-May-2018,1,2,61,Sub17_Trial61_0,0,1,1,59.14693,True,1.453
17,0,20-May-2018,1,2,61,Sub17_Trial61_0,0,2,2,-115.751278,True,1.453
17,0,20-May-2018,1,2,61,Sub17_Trial61_0,0,3,3,22.94844,True,1.453
17,0,20-May-2018,1,2,61,Sub17_Trial61_0,0,4,4,5.626031,True,1.453
17,0,20-May-2018,1,2,61,Sub17_Trial61_0,0,5,5,-58.388379,True,1.453
17,0,20-May-2018,1,2,61,Sub17_Trial61_0,0,6,6,68.891789,True,1.453
17,0,20-May-2018,1,2,61,Sub17_Trial61_1,1,0,0,-8.604422,False,1.453
17,0,20-May-2018,1,2,61,Sub17_Trial61_1,1,1,1,90.518506,False,1.453
17,0,20-May-2018,1,2,61,Sub17_Trial61_1,1,2,2,24.912264,False,1.453
17,0,20-May-2018,1,2,61,Sub17_Trial61_1,1,3,3,31.235979,False,1.453
17,0,20-May-2018,1,2,61,Sub17_Trial61_1,1,4,4,-143.906904,False,1.453
17,0,20-May-2018,1,2,61,Sub17_Trial61_1,1,5,5,-89.221482,False,1.453
17,0,20-May-2018,1,2,61,Sub17_Trial61_1,1,6,6,11.979367,False,1.453
17,0,20-May-2018,1,2,62,Sub17_Trial62_0,0,0,0,-82.302218,True,1.22
17,0,20-May-2018,1,2,62,Sub17_Trial62_0,0,1,1,-31.206524,True,1.22
17,0,20-May-2018,1,2,62,Sub17_Trial62_0,0,2,2,149.28342,True,1.22
17,0,20-May-2018,1,2,62,Sub17_Trial62_0,0,3,3,-166.240795,True,1.22
17,0,20-May-2018,1,2,62,Sub17_Trial62_0,0,4,4,-11.07872,True,1.22
17,0,20-May-2018,1,2,62,Sub17_Trial62_0,0,5,5,76.302534,True,1.22
17,0,20-May-2018,1,2,62,Sub17_Trial62_0,0,6,6,10.438848,True,1.22
17,0,20-May-2018,1,2,62,Sub17_Trial62_1,1,0,0,-115.154472,False,1.22
17,0,20-May-2018,1,2,62,Sub17_Trial62_1,1,1,1,-6.210511,False,1.22
17,0,20-May-2018,1,2,62,Sub17_Trial62_1,1,2,2,17.730548,False,1.22
17,0,20-May-2018,1,2,62,Sub17_Trial62_1,1,3,3,185.196557,False,1.22
17,0,20-May-2018,1,2,62,Sub17_Trial62_1,1,4,4,131.510178,False,1.22
17,0,20-May-2018,1,2,62,Sub17_Trial62_1,1,5,5,-72.441032,False,1.22
17,0,20-May-2018,1,2,62,Sub17_Trial62_1,1,6,6,-140.005898,False,1.22
17,0,20-May-2018,1,2,63,Sub17_Trial63_0,0,0,0,-92.72006,True,2.309
17,0,20-May-2018,1,2,63,Sub17_Trial63_0,0,1,1,-40.617709,True,2.309
17,0,20-May-2018,1,2,63,Sub17_Trial63_0,0,2,2,197.449047,True,2.309
17,0,20-May-2018,1,2,63,Sub17_Trial63_0,0,3,3,57.290389,True,2.309
17,0,20-May-2018,1,2,63,Sub17_Trial63_0,0,4,4,17.769058,True,2.309
17,0,20-May-2018,1,2,63,Sub17_Trial63_0,0,5,5,-1.636943,True,2.309
17,0,20-May-2018,1,2,63,Sub17_Trial63_0,0,6,6,76.6088,True,2.309
17,0,20-May-2018,1,2,63,Sub17_Trial63_1,1,0,0,26.129572,False,2.309
17,0,20-May-2018,1,2,63,Sub17_Trial63_1,1,1,1,-124.38319,False,2.309
17,0,20-May-2018,1,2,63,Sub17_Trial63_1,1,2,2,91.977664,False,2.309
17,0,20-May-2018,1,2,63,Sub17_Trial63_1,1,3,3,157.138666,False,2.309
17,0,20-May-2018,1,2,63,Sub17_Trial63_1,1,4,4,163.447335,False,2.309
17,0,20-May-2018,1,2,63,Sub17_Trial63_1,1,5,5,-41.642906,False,2.309
17,0,20-May-2018,1,2,63,Sub17_Trial63_1,1,6,6,-23.927688,False,2.309
17,0,20-May-2018,1,2,64,Sub17_Trial64_0,0,0,0,-188.45651,True,1.341
17,0,20-May-2018,1,2,64,Sub17_Trial64_0,0,1,1,-14.830846,True,1.341
17,0,20-May-2018,1,2,64,Sub17_Trial64_0,0,2,2,-40.371641,True,1.341
17,0,20-May-2018,1,2,64,Sub17_Trial64_0,0,3,3,-32.47662,True,1.341
17,0,20-May-2018,1,2,64,Sub17_Trial64_0,0,4,4,-45.303517,True,1.341
17,0,20-May-2018,1,2,64,Sub17_Trial64_0,0,5,5,120.30312,True,1.341
17,0,20-May-2018,1,2,64,Sub17_Trial64_0,0,6,6,-25.617752,True,1.341
17,0,20-May-2018,1,2,64,Sub17_Trial64_1,1,0,0,116.241734,False,1.341
17,0,20-May-2018,1,2,64,Sub17_Trial64_1,1,1,1,-77.689665,False,1.341
17,0,20-May-2018,1,2,64,Sub17_Trial64_1,1,2,2,86.915715,False,1.341
17,0,20-May-2018,1,2,64,Sub17_Trial64_1,1,3,3,-38.426952,False,1.341
17,0,20-May-2018,1,2,64,Sub17_Trial64_1,1,4,4,69.242208,False,1.341
17,0,20-May-2018,1,2,64,Sub17_Trial64_1,1,5,5,4.817205,False,1.341
17,0,20-May-2018,1,2,64,Sub17_Trial64_1,1,6,6,11.085781,False,1.341
17,0,20-May-2018,1,2,65,Sub17_Trial65_0,0,0,0,-47.029613,True,0.915
17,0,20-May-2018,1,2,65,Sub17_Trial65_0,0,1,1,-38.50938,True,0.915
17,0,20-May-2018,1,2,65,Sub17_Trial65_0,0,2,2,-62.703356,True,0.915
17,0,20-May-2018,1,2,65,Sub17_Trial65_0,0,3,3,70.784989,True,0.915
17,0,20-May-2018,1,2,65,Sub17_Trial65_0,0,4,4,159.806627,True,0.915
17,0,20-May-2018,1,2,65,Sub17_Trial65_0,0,5,5,16.88568,True,0.915
17,0,20-May-2018,1,2,65,Sub17_Trial65_0,0,6,6,-48.094636,True,0.915
17,0,20-May-2018,1,2,65,Sub17_Trial65_1,1,0,0,-81.220148,False,0.915
17,0,20-May-2018,1,2,65,Sub17_Trial65_1,1,1,1,-102.416351,False,0.915
17,0,20-May-2018,1,2,65,Sub17_Trial65_1,1,2,2,53.951389,False,0.915
17,0,20-May-2018,1,2,65,Sub17_Trial65_1,1,3,3,-30.487803,False,0.915
17,0,20-May-2018,1,2,65,Sub17_Trial65_1,1,4,4,19.565482,False,0.915
17,0,20-May-2018,1,2,65,Sub17_Trial65_1,1,5,5,43.635693,False,0.915
17,0,20-May-2018,1,2,65,Sub17_Trial65_1,1,6,6,33.262307,False,0.915
17,0,20-May-2018,1,2,66,Sub17_Trial66_0,0,0,0,-4.724773,False,0.613
17,0,20-May-2018,1,2,66,Sub17_Trial66_0,0,1,1,-81.795706,False,0.613
17,0,20-May-2018,1,2,66,Sub17_Trial66_0,0,2,2,-35.432258,False,0.613
17,0,20-May-2018,1,2,66,Sub17_Trial66_0,0,3,3,-1.507272,False,0.613
17,0,20-May-2018,1,2,66,Sub17_Trial66_0,0,4,4,-67.329187,False,0.613
17,0,20-May-2018,1,2,66,Sub17_Trial66_0,0,5,5,65.304566,False,0.613
17,0,20-May-2018,1,2,66,Sub17_Trial66_0,0,6,6,-1.041184,False,0.613
17,0,20-May-2018,1,2,66,Sub17_Trial66_1,1,0,0,-60.714007,True,0.613
17,0,20-May-2018,1,2,66,Sub17_Trial66_1,1,1,1,-89.75312,True,0.613
17,0,20-May-2018,1,2,66,Sub17_Trial66_1,1,2,2,-61.682899,True,0.613
17,0,20-May-2018,1,2,66,Sub17_Trial66_1,1,3,3,133.945684,True,0.613
17,0,20-May-2018,1,2,66,Sub17_Trial66_1,1,4,4,163.726984,True,0.613
17,0,20-May-2018,1,2,66,Sub17_Trial66_1,1,5,5,122.97089,True,0.613
17,0,20-May-2018,1,2,66,Sub17_Trial66_1,1,6,6,72.111084,True,0.613
17,0,20-May-2018,1,2,67,Sub17_Trial67_0,0,0,0,197.555792,True,0.837
17,0,20-May-2018,1,2,67,Sub17_Trial67_0,0,1,1,-60.319485,True,0.837
17,0,20-May-2018,1,2,67,Sub17_Trial67_0,0,2,2,-91.238999,True,0.837
17,0,20-May-2018,1,2,67,Sub17_Trial67_0,0,3,3,-89.537962,True,0.837
17,0,20-May-2018,1,2,67,Sub17_Trial67_0,0,4,4,13.340425,True,0.837
17,0,20-May-2018,1,2,67,Sub17_Trial67_0,0,5,5,113.723127,True,0.837
17,0,20-May-2018,1,2,67,Sub17_Trial67_0,0,6,6,-15.989313,True,0.837
17,0,20-May-2018,1,2,67,Sub17_Trial67_1,1,0,0,-42.889883,False,0.837
17,0,20-May-2018,1,2,67,Sub17_Trial67_1,1,1,1,103.964163,False,0.837
17,0,20-May-2018,1,2,67,Sub17_Trial67_1,1,2,2,28.961998,False,0.837
17,0,20-May-2018,1,2,67,Sub17_Trial67_1,1,3,3,49.679073,False,0.837
17,0,20-May-2018,1,2,67,Sub17_Trial67_1,1,4,4,-36.997315,False,0.837
17,0,20-May-2018,1,2,67,Sub17_Trial67_1,1,5,5,-82.654602,False,0.837
17,0,20-May-2018,1,2,67,Sub17_Trial67_1,1,6,6,41.512723,False,0.837
17,0,20-May-2018,1,2,68,Sub17_Trial68_0,0,0,0,20.856544,False,0.844
17,0,20-May-2018,1,2,68,Sub17_Trial68_0,0,1,1,111.3815,False,0.844
17,0,20-May-2018,1,2,68,Sub17_Trial68_0,0,2,2,7.227902,False,0.844
17,0,20-May-2018,1,2,68,Sub17_Trial68_0,0,3,3,-58.813686,False,0.844
17,0,20-May-2018,1,2,68,Sub17_Trial68_0,0,4,4,-40.295136,False,0.844
17,0,20-May-2018,1,2,68,Sub17_Trial68_0,0,5,5,-84.585096,False,0.844
17,0,20-May-2018,1,2,68,Sub17_Trial68_0,0,6,6,104.58987,False,0.844
17,0,20-May-2018,1,2,68,Sub17_Trial68_1,1,0,0,-102.095771,True,0.844
17,0,20-May-2018,1,2,68,Sub17_Trial68_1,1,1,1,-53.579458,True,0.844
17,0,20-May-2018,1,2,68,Sub17_Trial68_1,1,2,2,-23.577024,True,0.844
17,0,20-May-2018,1,2,68,Sub17_Trial68_1,1,3,3,7.231784,True,0.844
17,0,20-May-2018,1,2,68,Sub17_Trial68_1,1,4,4,16.782202,True,0.844
17,0,20-May-2018,1,2,68,Sub17_Trial68_1,1,5,5,37.493279,True,0.844
17,0,20-May-2018,1,2,68,Sub17_Trial68_1,1,6,6,-55.600896,True,0.844
17,0,20-May-2018,1,2,69,Sub17_Trial69_0,0,0,0,-27.957983,True,1.022
17,0,20-May-2018,1,2,69,Sub17_Trial69_0,0,1,1,76.311794,True,1.022
17,0,20-May-2018,1,2,69,Sub17_Trial69_0,0,2,2,110.904108,True,1.022
17,0,20-May-2018,1,2,69,Sub17_Trial69_0,0,3,3,46.227966,True,1.022
17,0,20-May-2018,1,2,69,Sub17_Trial69_0,0,4,4,63.02068,True,1.022
17,0,20-May-2018,1,2,69,Sub17_Trial69_0,0,5,5,17.980794,True,1.022
17,0,20-May-2018,1,2,69,Sub17_Trial69_0,0,6,6,18.889963,True,1.022
17,0,20-May-2018,1,2,69,Sub17_Trial69_1,1,0,0,157.410977,False,1.022
17,0,20-May-2018,1,2,69,Sub17_Trial69_1,1,1,1,74.775571,False,1.022
17,0,20-May-2018,1,2,69,Sub17_Trial69_1,1,2,2,-81.507281,False,1.022
17,0,20-May-2018,1,2,69,Sub17_Trial69_1,1,3,3,-45.886604,False,1.022
17,0,20-May-2018,1,2,69,Sub17_Trial69_1,1,4,4,38.407949,False,1.022
17,0,20-May-2018,1,2,69,Sub17_Trial69_1,1,5,5,-28.512128,False,1.022
17,0,20-May-2018,1,2,69,Sub17_Trial69_1,1,6,6,87.914178,False,1.022
17,0,20-May-2018,1,2,70,Sub17_Trial70_0,0,0,0,-28.385957,False,0.769
17,0,20-May-2018,1,2,70,Sub17_Trial70_0,0,1,1,40.543066,False,0.769
17,0,20-May-2018,1,2,70,Sub17_Trial70_0,0,2,2,-52.680733,False,0.769
17,0,20-May-2018,1,2,70,Sub17_Trial70_0,0,3,3,123.173073,False,0.769
17,0,20-May-2018,1,2,70,Sub17_Trial70_0,0,4,4,-51.088008,False,0.769
17,0,20-May-2018,1,2,70,Sub17_Trial70_0,0,5,5,-43.862958,False,0.769
17,0,20-May-2018,1,2,70,Sub17_Trial70_0,0,6,6,-106.415329,False,0.769
17,0,20-May-2018,1,2,70,Sub17_Trial70_1,1,0,0,-27.177107,True,0.769
17,0,20-May-2018,1,2,70,Sub17_Trial70_1,1,1,1,-72.523636,True,0.769
17,0,20-May-2018,1,2,70,Sub17_Trial70_1,1,2,2,41.460084,True,0.769
17,0,20-May-2018,1,2,70,Sub17_Trial70_1,1,3,3,19.735378,True,0.769
17,0,20-May-2018,1,2,70,Sub17_Trial70_1,1,4,4,58.602178,True,0.769
17,0,20-May-2018,1,2,70,Sub17_Trial70_1,1,5,5,37.321899,True,0.769
17,0,20-May-2018,1,2,70,Sub17_Trial70_1,1,6,6,74.088343,True,0.769
17,0,20-May-2018,1,2,71,Sub17_Trial71_0,0,0,0,-31.658616,True,0.958
17,0,20-May-2018,1,2,71,Sub17_Trial71_0,0,1,1,21.485521,True,0.958
17,0,20-May-2018,1,2,71,Sub17_Trial71_0,0,2,2,-107.985055,True,0.958
17,0,20-May-2018,1,2,71,Sub17_Trial71_0,0,3,3,49.97167,True,0.958
17,0,20-May-2018,1,2,71,Sub17_Trial71_0,0,4,4,82.771325,True,0.958
17,0,20-May-2018,1,2,71,Sub17_Trial71_0,0,5,5,-28.124185,True,0.958
17,0,20-May-2018,1,2,71,Sub17_Trial71_0,0,6,6,95.56844,True,0.958
17,0,20-May-2018,1,2,71,Sub17_Trial71_1,1,0,0,44.529897,False,0.958
17,0,20-May-2018,1,2,71,Sub17_Trial71_1,1,1,1,43.722646,False,0.958
17,0,20-May-2018,1,2,71,Sub17_Trial71_1,1,2,2,-36.753547,False,0.958
17,0,20-May-2018,1,2,71,Sub17_Trial71_1,1,3,3,-154.516322,False,0.958
17,0,20-May-2018,1,2,71,Sub17_Trial71_1,1,4,4,-4.134957,False,0.958
17,0,20-May-2018,1,2,71,Sub17_Trial71_1,1,5,5,-87.096601,False,0.958
17,0,20-May-2018,1,2,71,Sub17_Trial71_1,1,6,6,-171.471326,False,0.958
17,0,20-May-2018,1,2,72,Sub17_Trial72_0,0,0,0,36.301826,True,0.804
17,0,20-May-2018,1,2,72,Sub17_Trial72_0,0,1,1,177.759128,True,0.804
17,0,20-May-2018,1,2,72,Sub17_Trial72_0,0,2,2,-115.993435,True,0.804
17,0,20-May-2018,1,2,72,Sub17_Trial72_0,0,3,3,173.505459,True,0.804
17,0,20-May-2018,1,2,72,Sub17_Trial72_0,0,4,4,-52.641703,True,0.804
17,0,20-May-2018,1,2,72,Sub17_Trial72_0,0,5,5,50.561749,True,0.804
17,0,20-May-2018,1,2,72,Sub17_Trial72_0,0,6,6,-132.675957,True,0.804
17,0,20-May-2018,1,2,72,Sub17_Trial72_1,1,0,0,-86.242831,False,0.804
17,0,20-May-2018,1,2,72,Sub17_Trial72_1,1,1,1,-127.023677,False,0.804
17,0,20-May-2018,1,2,72,Sub17_Trial72_1,1,2,2,54.380824,False,0.804
17,0,20-May-2018,1,2,72,Sub17_Trial72_1,1,3,3,97.57283,False,0.804
17,0,20-May-2018,1,2,72,Sub17_Trial72_1,1,4,4,-65.889158,False,0.804
17,0,20-May-2018,1,2,72,Sub17_Trial72_1,1,5,5,34.361365,False,0.804
17,0,20-May-2018,1,2,72,Sub17_Trial72_1,1,6,6,-106.409971,False,0.804
17,0,20-May-2018,1,2,73,Sub17_Trial73_0,0,0,0,142.542583,True,1.036
17,0,20-May-2018,1,2,73,Sub17_Trial73_0,0,1,1,56.137571,True,1.036
17,0,20-May-2018,1,2,73,Sub17_Trial73_0,0,2,2,134.245852,True,1.036
17,0,20-May-2018,1,2,73,Sub17_Trial73_0,0,3,3,13.760325,True,1.036
17,0,20-May-2018,1,2,73,Sub17_Trial73_0,0,4,4,-34.116626,True,1.036
17,0,20-May-2018,1,2,73,Sub17_Trial73_0,0,5,5,79.446598,True,1.036
17,0,20-May-2018,1,2,73,Sub17_Trial73_0,0,6,6,34.337787,True,1.036
17,0,20-May-2018,1,2,73,Sub17_Trial73_1,1,0,0,28.2096,False,1.036
17,0,20-May-2018,1,2,73,Sub17_Trial73_1,1,1,1,-52.156423,False,1.036
17,0,20-May-2018,1,2,73,Sub17_Trial73_1,1,2,2,-117.161645,False,1.036
17,0,20-May-2018,1,2,73,Sub17_Trial73_1,1,3,3,0.805067,False,1.036
17,0,20-May-2018,1,2,73,Sub17_Trial73_1,1,4,4,55.708663,False,1.036
17,0,20-May-2018,1,2,73,Sub17_Trial73_1,1,5,5,-99.30632,False,1.036
17,0,20-May-2018,1,2,73,Sub17_Trial73_1,1,6,6,-30.810671,False,1.036
17,0,20-May-2018,1,2,74,Sub17_Trial74_0,0,0,0,-30.968266,True,0.604
17,0,20-May-2018,1,2,74,Sub17_Trial74_0,0,1,1,37.67837,True,0.604
17,0,20-May-2018,1,2,74,Sub17_Trial74_0,0,2,2,-51.189563,True,0.604
17,0,20-May-2018,1,2,74,Sub17_Trial74_0,0,3,3,-68.453916,True,0.604
17,0,20-May-2018,1,2,74,Sub17_Trial74_0,0,4,4,76.26054,True,0.604
17,0,20-May-2018,1,2,74,Sub17_Trial74_0,0,5,5,181.907593,True,0.604
17,0,20-May-2018,1,2,74,Sub17_Trial74_0,0,6,6,48.342245,True,0.604
17,0,20-May-2018,1,2,74,Sub17_Trial74_1,1,0,0,-9.411199,False,0.604
17,0,20-May-2018,1,2,74,Sub17_Trial74_1,1,1,1,0.991542,False,0.604
17,0,20-May-2018,1,2,74,Sub17_Trial74_1,1,2,2,-136.213901,False,0.604
17,0,20-May-2018,1,2,74,Sub17_Trial74_1,1,3,3,-38.970541,False,0.604
17,0,20-May-2018,1,2,74,Sub17_Trial74_1,1,4,4,-149.996426,False,0.604
17,0,20-May-2018,1,2,74,Sub17_Trial74_1,1,5,5,-24.288303,False,0.604
17,0,20-May-2018,1,2,74,Sub17_Trial74_1,1,6,6,-74.383756,False,0.604
17,0,20-May-2018,1,2,75,Sub17_Trial75_0,0,0,0,124.205447,True,0.91
17,0,20-May-2018,1,2,75,Sub17_Trial75_0,0,1,1,73.40259,True,0.91
17,0,20-May-2018,1,2,75,Sub17_Trial75_0,0,2,2,98.8986,True,0.91
17,0,20-May-2018,1,2,75,Sub17_Trial75_0,0,3,3,38.619549,True,0.91
17,0,20-May-2018,1,2,75,Sub17_Trial75_0,0,4,4,72.906257,True,0.91
17,0,20-May-2018,1,2,75,Sub17_Trial75_0,0,5,5,-39.511583,True,0.91
17,0,20-May-2018,1,2,75,Sub17_Trial75_0,0,6,6,-77.384818,True,0.91
17,0,20-May-2018,1,2,75,Sub17_Trial75_1,1,0,0,-44.512725,False,0.91
17,0,20-May-2018,1,2,75,Sub17_Trial75_1,1,1,1,-38.146526,False,0.91
17,0,20-May-2018,1,2,75,Sub17_Trial75_1,1,2,2,129.326174,False,0.91
17,0,20-May-2018,1,2,75,Sub17_Trial75_1,1,3,3,181.605961,False,0.91
17,0,20-May-2018,1,2,75,Sub17_Trial75_1,1,4,4,-48.432936,False,0.91
17,0,20-May-2018,1,2,75,Sub17_Trial75_1,1,5,5,-66.587662,False,0.91
17,0,20-May-2018,1,2,75,Sub17_Trial75_1,1,6,6,-33.999307,False,0.91
17,0,20-May-2018,1,2,76,Sub17_Trial76_0,0,0,0,116.278035,True,0.421
17,0,20-May-2018,1,2,76,Sub17_Trial76_0,0,1,1,-26.982995,True,0.421
17,0,20-May-2018,1,2,76,Sub17_Trial76_0,0,2,2,133.605004,True,0.421
17,0,20-May-2018,1,2,76,Sub17_Trial76_0,0,3,3,-117.332133,True,0.421
17,0,20-May-2018,1,2,76,Sub17_Trial76_0,0,4,4,-4.93939,True,0.421
17,0,20-May-2018,1,2,76,Sub17_Trial76_0,0,5,5,-104.035774,True,0.421
17,0,20-May-2018,1,2,76,Sub17_Trial76_0,0,6,6,-17.822035,True,0.421
17,0,20-May-2018,1,2,76,Sub17_Trial76_1,1,0,0,67.981978,False,0.421
17,0,20-May-2018,1,2,76,Sub17_Trial76_1,1,1,1,84.570978,False,0.421
17,0,20-May-2018,1,2,76,Sub17_Trial76_1,1,2,2,170.503464,False,0.421
17,0,20-May-2018,1,2,76,Sub17_Trial76_1,1,3,3,36.375311,False,0.421
17,0,20-May-2018,1,2,76,Sub17_Trial76_1,1,4,4,-50.742261,False,0.421
17,0,20-May-2018,1,2,76,Sub17_Trial76_1,1,5,5,-53.336046,False,0.421
17,0,20-May-2018,1,2,76,Sub17_Trial76_1,1,6,6,-78.273802,False,0.421
17,0,20-May-2018,1,2,77,Sub17_Trial77_0,0,0,0,-58.927249,True,0.339
17,0,20-May-2018,1,2,77,Sub17_Trial77_0,0,1,1,-157.699592,True,0.339
17,0,20-May-2018,1,2,77,Sub17_Trial77_0,0,2,2,174.287414,True,0.339
17,0,20-May-2018,1,2,77,Sub17_Trial77_0,0,3,3,-15.232891,True,0.339
17,0,20-May-2018,1,2,77,Sub17_Trial77_0,0,4,4,-69.945579,True,0.339
17,0,20-May-2018,1,2,77,Sub17_Trial77_0,0,5,5,-125.023142,True,0.339
17,0,20-May-2018,1,2,77,Sub17_Trial77_0,0,6,6,-96.673888,True,0.339
17,0,20-May-2018,1,2,77,Sub17_Trial77_1,1,0,0,44.043896,False,0.339
17,0,20-May-2018,1,2,77,Sub17_Trial77_1,1,1,1,-174.306539,False,0.339
17,0,20-May-2018,1,2,77,Sub17_Trial77_1,1,2,2,80.863856,False,0.339
17,0,20-May-2018,1,2,77,Sub17_Trial77_1,1,3,3,-56.650496,False,0.339
17,0,20-May-2018,1,2,77,Sub17_Trial77_1,1,4,4,7.806228,False,0.339
17,0,20-May-2018,1,2,77,Sub17_Trial77_1,1,5,5,-30.898777,False,0.339
17,0,20-May-2018,1,2,77,Sub17_Trial77_1,1,6,6,-15.876287,False,0.339
17,0,20-May-2018,1,2,78,Sub17_Trial78_0,0,0,0,-63.061366,True,1.803
17,0,20-May-2018,1,2,78,Sub17_Trial78_0,0,1,1,-134.341731,True,1.803
17,0,20-May-2018,1,2,78,Sub17_Trial78_0,0,2,2,-107.469215,True,1.803
17,0,20-May-2018,1,2,78,Sub17_Trial78_0,0,3,3,-61.764901,True,1.803
17,0,20-May-2018,1,2,78,Sub17_Trial78_0,0,4,4,-26.678028,True,1.803
17,0,20-May-2018,1,2,78,Sub17_Trial78_0,0,5,5,114.123708,True,1.803
17,0,20-May-2018,1,2,78,Sub17_Trial78_0,0,6,6,163.439941,True,1.803
17,0,20-May-2018,1,2,78,Sub17_Trial78_1,1,0,0,-0.94783,False,1.803
17,0,20-May-2018,1,2,78,Sub17_Trial78_1,1,1,1,82.80415,False,1.803
17,0,20-May-2018,1,2,78,Sub17_Trial78_1,1,2,2,116.579838,False,1.803
17,0,20-May-2018,1,2,78,Sub17_Trial78_1,1,3,3,-5.506338,False,1.803
17,0,20-May-2018,1,2,78,Sub17_Trial78_1,1,4,4,136.771164,False,1.803
17,0,20-May-2018,1,2,78,Sub17_Trial78_1,1,5,5,29.482242,False,1.803
17,0,20-May-2018,1,2,78,Sub17_Trial78_1,1,6,6,119.088217,False,1.803
17,0,20-May-2018,1,2,79,Sub17_Trial79_0,0,0,0,-47.497961,True,0.556
17,0,20-May-2018,1,2,79,Sub17_Trial79_0,0,1,1,110.819383,True,0.556
17,0,20-May-2018,1,2,79,Sub17_Trial79_0,0,2,2,-94.976323,True,0.556
17,0,20-May-2018,1,2,79,Sub17_Trial79_0,0,3,3,-37.849451,True,0.556
17,0,20-May-2018,1,2,79,Sub17_Trial79_0,0,4,4,-111.819421,True,0.556
17,0,20-May-2018,1,2,79,Sub17_Trial79_0,0,5,5,57.777103,True,0.556
17,0,20-May-2018,1,2,79,Sub17_Trial79_0,0,6,6,72.256792,True,0.556
17,0,20-May-2018,1,2,79,Sub17_Trial79_1,1,0,0,-85.808188,False,0.556
17,0,20-May-2018,1,2,79,Sub17_Trial79_1,1,1,1,-25.650644,False,0.556
17,0,20-May-2018,1,2,79,Sub17_Trial79_1,1,2,2,72.165586,False,0.556
17,0,20-May-2018,1,2,79,Sub17_Trial79_1,1,3,3,-1.968088,False,0.556
17,0,20-May-2018,1,2,79,Sub17_Trial79_1,1,4,4,59.770023,False,0.556
17,0,20-May-2018,1,2,79,Sub17_Trial79_1,1,5,5,13.03458,False,0.556
17,0,20-May-2018,1,2,79,Sub17_Trial79_1,1,6,6,99.367115,False,0.556
17,0,20-May-2018,1,2,80,Sub17_Trial80_0,0,0,0,-0.582713,True,1.056
17,0,20-May-2018,1,2,80,Sub17_Trial80_0,0,1,1,-152.174465,True,1.056
17,0,20-May-2018,1,2,80,Sub17_Trial80_0,0,2,2,6.805601,True,1.056
17,0,20-May-2018,1,2,80,Sub17_Trial80_0,0,3,3,-18.536093,True,1.056
17,0,20-May-2018,1,2,80,Sub17_Trial80_0,0,4,4,107.118899,True,1.056
17,0,20-May-2018,1,2,80,Sub17_Trial80_0,0,5,5,58.354929,True,1.056
17,0,20-May-2018,1,2,80,Sub17_Trial80_0,0,6,6,159.742949,True,1.056
17,0,20-May-2018,1,2,80,Sub17_Trial80_1,1,0,0,38.738697,False,1.056
17,0,20-May-2018,1,2,80,Sub17_Trial80_1,1,1,1,103.441898,False,1.056
17,0,20-May-2018,1,2,80,Sub17_Trial80_1,1,2,2,-0.334235,False,1.056
17,0,20-May-2018,1,2,80,Sub17_Trial80_1,1,3,3,61.575874,False,1.056
17,0,20-May-2018,1,2,80,Sub17_Trial80_1,1,4,4,100.456156,False,1.056
17,0,20-May-2018,1,2,80,Sub17_Trial80_1,1,5,5,-102.408101,False,1.056
17,0,20-May-2018,1,2,80,Sub17_Trial80_1,1,6,6,68.979429,False,1.056
17,0,20-May-2018,1,2,81,Sub17_Trial81_0,0,0,0,2.062118,True,0.679
17,0,20-May-2018,1,2,81,Sub17_Trial81_0,0,1,1,-31.430557,True,0.679
17,0,20-May-2018,1,2,81,Sub17_Trial81_0,0,2,2,-116.596823,True,0.679
17,0,20-May-2018,1,2,81,Sub17_Trial81_0,0,3,3,-44.049167,True,0.679
17,0,20-May-2018,1,2,81,Sub17_Trial81_0,0,4,4,36.780397,True,0.679
17,0,20-May-2018,1,2,81,Sub17_Trial81_0,0,5,5,-140.344736,True,0.679
17,0,20-May-2018,1,2,81,Sub17_Trial81_0,0,6,6,-95.751818,True,0.679
17,0,20-May-2018,1,2,81,Sub17_Trial81_1,1,0,0,44.874015,False,0.679
17,0,20-May-2018,1,2,81,Sub17_Trial81_1,1,1,1,-62.097338,False,0.679
17,0,20-May-2018,1,2,81,Sub17_Trial81_1,1,2,2,34.637937,False,0.679
17,0,20-May-2018,1,2,81,Sub17_Trial81_1,1,3,3,-95.242987,False,0.679
17,0,20-May-2018,1,2,81,Sub17_Trial81_1,1,4,4,177.195227,False,0.679
17,0,20-May-2018,1,2,81,Sub17_Trial81_1,1,5,5,-72.205752,False,0.679
17,0,20-May-2018,1,2,81,Sub17_Trial81_1,1,6,6,-69.046051,False,0.679
17,0,20-May-2018,1,2,82,Sub17_Trial82_0,0,0,0,6.5642,False,0.925
17,0,20-May-2018,1,2,82,Sub17_Trial82_0,0,1,1,50.381399,False,0.925
17,0,20-May-2018,1,2,82,Sub17_Trial82_0,0,2,2,19.268614,False,0.925
17,0,20-May-2018,1,2,82,Sub17_Trial82_0,0,3,3,20.136598,False,0.925
17,0,20-May-2018,1,2,82,Sub17_Trial82_0,0,4,4,57.640595,False,0.925
17,0,20-May-2018,1,2,82,Sub17_Trial82_0,0,5,5,-99.603068,False,0.925
17,0,20-May-2018,1,2,82,Sub17_Trial82_0,0,6,6,-86.883487,False,0.925
17,0,20-May-2018,1,2,82,Sub17_Trial82_1,1,0,0,-7.108125,True,0.925
17,0,20-May-2018,1,2,82,Sub17_Trial82_1,1,1,1,-48.292139,True,0.925
17,0,20-May-2018,1,2,82,Sub17_Trial82_1,1,2,2,-132.141921,True,0.925
17,0,20-May-2018,1,2,82,Sub17_Trial82_1,1,3,3,-115.664307,True,0.925
17,0,20-May-2018,1,2,82,Sub17_Trial82_1,1,4,4,-46.898168,True,0.925
17,0,20-May-2018,1,2,82,Sub17_Trial82_1,1,5,5,109.574446,True,0.925
17,0,20-May-2018,1,2,82,Sub17_Trial82_1,1,6,6,43.11279,True,0.925
17,0,20-May-2018,1,2,83,Sub17_Trial83_0,0,0,0,41.869596,False,0.798
17,0,20-May-2018,1,2,83,Sub17_Trial83_0,0,1,1,117.102249,False,0.798
17,0,20-May-2018,1,2,83,Sub17_Trial83_0,0,2,2,-99.947593,False,0.798
17,0,20-May-2018,1,2,83,Sub17_Trial83_0,0,3,3,-68.948464,False,0.798
17,0,20-May-2018,1,2,83,Sub17_Trial83_0,0,4,4,-77.678779,False,0.798
17,0,20-May-2018,1,2,83,Sub17_Trial83_0,0,5,5,-19.025208,False,0.798
17,0,20-May-2018,1,2,83,Sub17_Trial83_0,0,6,6,16.918529,False,0.798
17,0,20-May-2018,1,2,83,Sub17_Trial83_1,1,0,0,-35.28518,True,0.798
17,0,20-May-2018,1,2,83,Sub17_Trial83_1,1,1,1,19.355453,True,0.798
17,0,20-May-2018,1,2,83,Sub17_Trial83_1,1,2,2,75.001014,True,0.798
17,0,20-May-2018,1,2,83,Sub17_Trial83_1,1,3,3,-14.67323,True,0.798
17,0,20-May-2018,1,2,83,Sub17_Trial83_1,1,4,4,-113.40644,True,0.798
17,0,20-May-2018,1,2,83,Sub17_Trial83_1,1,5,5,43.024166,True,0.798
17,0,20-May-2018,1,2,83,Sub17_Trial83_1,1,6,6,79.258128,True,0.798
17,0,20-May-2018,1,2,84,Sub17_Trial84_0,0,0,0,78.769958,False,0.623
17,0,20-May-2018,1,2,84,Sub17_Trial84_0,0,1,1,-81.770684,False,0.623
17,0,20-May-2018,1,2,84,Sub17_Trial84_0,0,2,2,123.955823,False,0.623
17,0,20-May-2018,1,2,84,Sub17_Trial84_0,0,3,3,-15.283239,False,0.623
17,0,20-May-2018,1,2,84,Sub17_Trial84_0,0,4,4,81.877998,False,0.623
17,0,20-May-2018,1,2,84,Sub17_Trial84_0,0,5,5,-13.178383,False,0.623
17,0,20-May-2018,1,2,84,Sub17_Trial84_0,0,6,6,49.539712,False,0.623
17,0,20-May-2018,1,2,84,Sub17_Trial84_1,1,0,0,42.846126,True,0.623
17,0,20-May-2018,1,2,84,Sub17_Trial84_1,1,1,1,170.387648,True,0.623
17,0,20-May-2018,1,2,84,Sub17_Trial84_1,1,2,2,-1.704145,True,0.623
17,0,20-May-2018,1,2,84,Sub17_Trial84_1,1,3,3,-91.564464,True,0.623
17,0,20-May-2018,1,2,84,Sub17_Trial84_1,1,4,4,-25.088724,True,0.623
17,0,20-May-2018,1,2,84,Sub17_Trial84_1,1,5,5,125.9653,True,0.623
17,0,20-May-2018,1,2,84,Sub17_Trial84_1,1,6,6,21.126615,True,0.623
17,0,20-May-2018,1,2,85,Sub17_Trial85_0,0,0,0,81.252393,True,0.981
17,0,20-May-2018,1,2,85,Sub17_Trial85_0,0,1,1,176.336137,True,0.981
17,0,20-May-2018,1,2,85,Sub17_Trial85_0,0,2,2,14.478385,True,0.981
17,0,20-May-2018,1,2,85,Sub17_Trial85_0,0,3,3,-74.676311,True,0.981
17,0,20-May-2018,1,2,85,Sub17_Trial85_0,0,4,4,22.612343,True,0.981
17,0,20-May-2018,1,2,85,Sub17_Trial85_0,0,5,5,88.17411,True,0.981
17,0,20-May-2018,1,2,85,Sub17_Trial85_0,0,6,6,83.517396,True,0.981
17,0,20-May-2018,1,2,85,Sub17_Trial85_1,1,0,0,54.556082,False,0.981
17,0,20-May-2018,1,2,85,Sub17_Trial85_1,1,1,1,-0.488525,False,0.981
17,0,20-May-2018,1,2,85,Sub17_Trial85_1,1,2,2,-59.115726,False,0.981
17,0,20-May-2018,1,2,85,Sub17_Trial85_1,1,3,3,-39.603383,False,0.981
17,0,20-May-2018,1,2,85,Sub17_Trial85_1,1,4,4,-189.295663,False,0.981
17,0,20-May-2018,1,2,85,Sub17_Trial85_1,1,5,5,-60.331713,False,0.981
17,0,20-May-2018,1,2,85,Sub17_Trial85_1,1,6,6,-20.277972,False,0.981
17,0,20-May-2018,1,2,86,Sub17_Trial86_0,0,0,0,38.091711,False,0.85
17,0,20-May-2018,1,2,86,Sub17_Trial86_0,0,1,1,95.754277,False,0.85
17,0,20-May-2018,1,2,86,Sub17_Trial86_0,0,2,2,-146.596589,False,0.85
17,0,20-May-2018,1,2,86,Sub17_Trial86_0,0,3,3,98.732679,False,0.85
17,0,20-May-2018,1,2,86,Sub17_Trial86_0,0,4,4,-7.233124,False,0.85
17,0,20-May-2018,1,2,86,Sub17_Trial86_0,0,5,5,6.023982,False,0.85
17,0,20-May-2018,1,2,86,Sub17_Trial86_0,0,6,6,79.82606,False,0.85
17,0,20-May-2018,1,2,86,Sub17_Trial86_1,1,0,0,-25.296654,True,0.85
17,0,20-May-2018,1,2,86,Sub17_Trial86_1,1,1,1,-100.307247,True,0.85
17,0,20-May-2018,1,2,86,Sub17_Trial86_1,1,2,2,-69.3521,True,0.85
17,0,20-May-2018,1,2,86,Sub17_Trial86_1,1,3,3,-112.936298,True,0.85
17,0,20-May-2018,1,2,86,Sub17_Trial86_1,1,4,4,-121.222621,True,0.85
17,0,20-May-2018,1,2,86,Sub17_Trial86_1,1,5,5,34.745318,True,0.85
17,0,20-May-2018,1,2,86,Sub17_Trial86_1,1,6,6,135.957725,True,0.85
17,0,20-May-2018,1,2,87,Sub17_Trial87_0,0,0,0,-52.166172,True,1.516
17,0,20-May-2018,1,2,87,Sub17_Trial87_0,0,1,1,17.795222,True,1.516
17,0,20-May-2018,1,2,87,Sub17_Trial87_0,0,2,2,100.577534,True,1.516
17,0,20-May-2018,1,2,87,Sub17_Trial87_0,0,3,3,77.458381,True,1.516
17,0,20-May-2018,1,2,87,Sub17_Trial87_0,0,4,4,39.463145,True,1.516
17,0,20-May-2018,1,2,87,Sub17_Trial87_0,0,5,5,32.612819,True,1.516
17,0,20-May-2018,1,2,87,Sub17_Trial87_0,0,6,6,14.070581,True,1.516
17,0,20-May-2018,1,2,87,Sub17_Trial87_1,1,0,0,98.114035,False,1.516
17,0,20-May-2018,1,2,87,Sub17_Trial87_1,1,1,1,71.401261,False,1.516
17,0,20-May-2018,1,2,87,Sub17_Trial87_1,1,2,2,41.907318,False,1.516
17,0,20-May-2018,1,2,87,Sub17_Trial87_1,1,3,3,145.493796,False,1.516
17,0,20-May-2018,1,2,87,Sub17_Trial87_1,1,4,4,-46.260718,False,1.516
17,0,20-May-2018,1,2,87,Sub17_Trial87_1,1,5,5,-32.052421,False,1.516
17,0,20-May-2018,1,2,87,Sub17_Trial87_1,1,6,6,-12.253711,False,1.516
17,0,20-May-2018,1,2,88,Sub17_Trial88_0,0,0,0,-32.887008,True,1.085
17,0,20-May-2018,1,2,88,Sub17_Trial88_0,0,1,1,39.587856,True,1.085
17,0,20-May-2018,1,2,88,Sub17_Trial88_0,0,2,2,55.330808,True,1.085
17,0,20-May-2018,1,2,88,Sub17_Trial88_0,0,3,3,-44.129097,True,1.085
17,0,20-May-2018,1,2,88,Sub17_Trial88_0,0,4,4,14.451355,True,1.085
17,0,20-May-2018,1,2,88,Sub17_Trial88_0,0,5,5,33.54817,True,1.085
17,0,20-May-2018,1,2,88,Sub17_Trial88_0,0,6,6,9.070535,True,1.085
17,0,20-May-2018,1,2,88,Sub17_Trial88_1,1,0,0,160.340159,False,1.085
17,0,20-May-2018,1,2,88,Sub17_Trial88_1,1,1,1,-99.179946,False,1.085
17,0,20-May-2018,1,2,88,Sub17_Trial88_1,1,2,2,23.654391,False,1.085
17,0,20-May-2018,1,2,88,Sub17_Trial88_1,1,3,3,-20.80929,False,1.085
17,0,20-May-2018,1,2,88,Sub17_Trial88_1,1,4,4,77.372072,False,1.085
17,0,20-May-2018,1,2,88,Sub17_Trial88_1,1,5,5,4.709696,False,1.085
17,0,20-May-2018,1,2,88,Sub17_Trial88_1,1,6,6,-65.82872,False,1.085
17,0,20-May-2018,1,2,89,Sub17_Trial89_0,0,0,0,-48.161449,False,1.822
17,0,20-May-2018,1,2,89,Sub17_Trial89_0,0,1,1,104.873208,False,1.822
17,0,20-May-2018,1,2,89,Sub17_Trial89_0,0,2,2,2.364053,False,1.822
17,0,20-May-2018,1,2,89,Sub17_Trial89_0,0,3,3,-54.595426,False,1.822
17,0,20-May-2018,1,2,89,Sub17_Trial89_0,0,4,4,55.166962,False,1.822
17,0,20-May-2018,1,2,89,Sub17_Trial89_0,0,5,5,21.656342,False,1.822
17,0,20-May-2018,1,2,89,Sub17_Trial89_0,0,6,6,-167.109846,False,1.822
17,0,20-May-2018,1,2,89,Sub17_Trial89_1,1,0,0,-72.079945,True,1.822
17,0,20-May-2018,1,2,89,Sub17_Trial89_1,1,1,1,-51.461402,True,1.822
17,0,20-May-2018,1,2,89,Sub17_Trial89_1,1,2,2,-117.840234,True,1.822
17,0,20-May-2018,1,2,89,Sub17_Trial89_1,1,3,3,-53.90771,True,1.822
17,0,20-May-2018,1,2,89,Sub17_Trial89_1,1,4,4,71.44538,True,1.822
17,0,20-May-2018,1,2,89,Sub17_Trial89_1,1,5,5,-144.249864,True,1.822
17,0,20-May-2018,1,2,89,Sub17_Trial89_1,1,6,6,-2.686918,True,1.822
17,0,20-May-2018,1,2,90,Sub17_Trial90_0,0,0,0,-72.486855,True,1.747
17,0,20-May-2018,1,2,90,Sub17_Trial90_0,0,1,1,1.06537,True,1.747
17,0,20-May-2018,1,2,90,Sub17_Trial90_0,0,2,2,-42.374985,True,1.747
17,0,20-May-2018,1,2,90,Sub17_Trial90_0,0,3,3,9.317974,True,1.747
17,0,20-May-2018,1,2,90,Sub17_Trial90_0,0,4,4,12.372579,True,1.747
17,0,20-May-2018,1,2,90,Sub17_Trial90_0,0,5,5,6.754789,True,1.747
17,0,20-May-2018,1,2,90,Sub17_Trial90_0,0,6,6,-80.061591,True,1.747
17,0,20-May-2018,1,2,90,Sub17_Trial90_1,1,0,0,-64.261712,False,1.747
17,0,20-May-2018,1,2,90,Sub17_Trial90_1,1,1,1,-30.156748,False,1.747
17,0,20-May-2018,1,2,90,Sub17_Trial90_1,1,2,2,-168.509599,False,1.747
17,0,20-May-2018,1,2,90,Sub17_Trial90_1,1,3,3,-4.029685,False,1.747
17,0,20-May-2018,1,2,90,Sub17_Trial90_1,1,4,4,-7.287421,False,1.747
17,0,20-May-2018,1,2,90,Sub17_Trial90_1,1,5,5,-72.146839,False,1.747
17,0,20-May-2018,1,2,90,Sub17_Trial90_1,1,6,6,-100.626383,False,1.747
17,0,20-May-2018,1,2,91,Sub17_Trial91_0,0,0,0,123.028613,True,0.301
17,0,20-May-2018,1,2,91,Sub17_Trial91_0,0,1,1,-5.521161,True,0.301
17,0,20-May-2018,1,2,91,Sub17_Trial91_0,0,2,2,-50.542694,True,0.301
17,0,20-May-2018,1,2,91,Sub17_Trial91_0,0,3,3,-41.20389,True,0.301
17,0,20-May-2018,1,2,91,Sub17_Trial91_0,0,4,4,7.749001,True,0.301
17,0,20-May-2018,1,2,91,Sub17_Trial91_0,0,5,5,45.500502,True,0.301
17,0,20-May-2018,1,2,91,Sub17_Trial91_0,0,6,6,60.936838,True,0.301
17,0,20-May-2018,1,2,91,Sub17_Trial91_1,1,0,0,10.987755,False,0.301
17,0,20-May-2018,1,2,91,Sub17_Trial91_1,1,1,1,-56.806408,False,0.301
17,0,20-May-2018,1,2,91,Sub17_Trial91_1,1,2,2,-79.897545,False,0.301
17,0,20-May-2018,1,2,91,Sub17_Trial91_1,1,3,3,11.380288,False,0.301
17,0,20-May-2018,1,2,91,Sub17_Trial91_1,1,4,4,170.062468,False,0.301
17,0,20-May-2018,1,2,91,Sub17_Trial91_1,1,5,5,-51.041281,False,0.301
17,0,20-May-2018,1,2,91,Sub17_Trial91_1,1,6,6,-36.249675,False,0.301
17,0,20-May-2018,1,2,92,Sub17_Trial92_0,0,0,0,94.949053,True,1.537
17,0,20-May-2018,1,2,92,Sub17_Trial92_0,0,1,1,159.65356,True,1.537
17,0,20-May-2018,1,2,92,Sub17_Trial92_0,0,2,2,69.120458,True,1.537
17,0,20-May-2018,1,2,92,Sub17_Trial92_0,0,3,3,-101.77412,True,1.537
17,0,20-May-2018,1,2,92,Sub17_Trial92_0,0,4,4,117.599062,True,1.537
17,0,20-May-2018,1,2,92,Sub17_Trial92_0,0,5,5,18.743492,True,1.537
17,0,20-May-2018,1,2,92,Sub17_Trial92_0,0,6,6,162.710805,True,1.537
17,0,20-May-2018,1,2,92,Sub17_Trial92_1,1,0,0,78.593241,False,1.537
17,0,20-May-2018,1,2,92,Sub17_Trial92_1,1,1,1,71.442383,False,1.537
17,0,20-May-2018,1,2,92,Sub17_Trial92_1,1,2,2,-59.164199,False,1.537
17,0,20-May-2018,1,2,92,Sub17_Trial92_1,1,3,3,-134.477842,False,1.537
17,0,20-May-2018,1,2,92,Sub17_Trial92_1,1,4,4,166.76518,False,1.537
17,0,20-May-2018,1,2,92,Sub17_Trial92_1,1,5,5,38.959914,False,1.537
17,0,20-May-2018,1,2,92,Sub17_Trial92_1,1,6,6,-142.525724,False,1.537
17,0,20-May-2018,1,2,93,Sub17_Trial93_0,0,0,0,6.900837,False,1.295
17,0,20-May-2018,1,2,93,Sub17_Trial93_0,0,1,1,122.829224,False,1.295
17,0,20-May-2018,1,2,93,Sub17_Trial93_0,0,2,2,47.624412,False,1.295
17,0,20-May-2018,1,2,93,Sub17_Trial93_0,0,3,3,-64.337364,False,1.295
17,0,20-May-2018,1,2,93,Sub17_Trial93_0,0,4,4,191.463288,False,1.295
17,0,20-May-2018,1,2,93,Sub17_Trial93_0,0,5,5,3.582043,False,1.295
17,0,20-May-2018,1,2,93,Sub17_Trial93_0,0,6,6,51.628061,False,1.295
17,0,20-May-2018,1,2,93,Sub17_Trial93_1,1,0,0,-76.557207,True,1.295
17,0,20-May-2018,1,2,93,Sub17_Trial93_1,1,1,1,12.550911,True,1.295
17,0,20-May-2018,1,2,93,Sub17_Trial93_1,1,2,2,-112.66721,True,1.295
17,0,20-May-2018,1,2,93,Sub17_Trial93_1,1,3,3,-94.385451,True,1.295
17,0,20-May-2018,1,2,93,Sub17_Trial93_1,1,4,4,78.232646,True,1.295
17,0,20-May-2018,1,2,93,Sub17_Trial93_1,1,5,5,31.092429,True,1.295
17,0,20-May-2018,1,2,93,Sub17_Trial93_1,1,6,6,107.777256,True,1.295
17,0,20-May-2018,1,2,94,Sub17_Trial94_0,0,0,0,8.717248,True,1.568
17,0,20-May-2018,1,2,94,Sub17_Trial94_0,0,1,1,-60.19025,True,1.568
17,0,20-May-2018,1,2,94,Sub17_Trial94_0,0,2,2,-44.987947,True,1.568
17,0,20-May-2018,1,2,94,Sub17_Trial94_0,0,3,3,-50.499446,True,1.568
17,0,20-May-2018,1,2,94,Sub17_Trial94_0,0,4,4,172.068738,True,1.568
17,0,20-May-2018,1,2,94,Sub17_Trial94_0,0,5,5,75.410286,True,1.568
17,0,20-May-2018,1,2,94,Sub17_Trial94_0,0,6,6,106.485037,True,1.568
17,0,20-May-2018,1,2,94,Sub17_Trial94_1,1,0,0,69.222604,False,1.568
17,0,20-May-2018,1,2,94,Sub17_Trial94_1,1,1,1,-63.566056,False,1.568
17,0,20-May-2018,1,2,94,Sub17_Trial94_1,1,2,2,-44.547093,False,1.568
17,0,20-May-2018,1,2,94,Sub17_Trial94_1,1,3,3,-49.597226,False,1.568
17,0,20-May-2018,1,2,94,Sub17_Trial94_1,1,4,4,138.661502,False,1.568
17,0,20-May-2018,1,2,94,Sub17_Trial94_1,1,5,5,-47.123867,False,1.568
17,0,20-May-2018,1,2,94,Sub17_Trial94_1,1,6,6,98.474275,False,1.568
17,0,20-May-2018,1,2,95,Sub17_Trial95_0,0,0,0,-102.90438,True,0.842
17,0,20-May-2018,1,2,95,Sub17_Trial95_0,0,1,1,-3.552311,True,0.842
17,0,20-May-2018,1,2,95,Sub17_Trial95_0,0,2,2,-195.15959,True,0.842
17,0,20-May-2018,1,2,95,Sub17_Trial95_0,0,3,3,-70.362728,True,0.842
17,0,20-May-2018,1,2,95,Sub17_Trial95_0,0,4,4,-29.510793,True,0.842
17,0,20-May-2018,1,2,95,Sub17_Trial95_0,0,5,5,-56.0379,True,0.842
17,0,20-May-2018,1,2,95,Sub17_Trial95_0,0,6,6,-85.991802,True,0.842
17,0,20-May-2018,1,2,95,Sub17_Trial95_1,1,0,0,-14.867167,False,0.842
17,0,20-May-2018,1,2,95,Sub17_Trial95_1,1,1,1,113.172688,False,0.842
17,0,20-May-2018,1,2,95,Sub17_Trial95_1,1,2,2,-34.860539,False,0.842
17,0,20-May-2018,1,2,95,Sub17_Trial95_1,1,3,3,140.204881,False,0.842
17,0,20-May-2018,1,2,95,Sub17_Trial95_1,1,4,4,-33.423075,False,0.842
17,0,20-May-2018,1,2,95,Sub17_Trial95_1,1,5,5,-34.14328,False,0.842
17,0,20-May-2018,1,2,95,Sub17_Trial95_1,1,6,6,-1.510882,False,0.842
17,0,20-May-2018,1,2,96,Sub17_Trial96_0,0,0,0,-45.294095,True,0.571
17,0,20-May-2018,1,2,96,Sub17_Trial96_0,0,1,1,3.977179,True,0.571
17,0,20-May-2018,1,2,96,Sub17_Trial96_0,0,2,2,121.035084,True,0.571
17,0,20-May-2018,1,2,96,Sub17_Trial96_0,0,3,3,-3.575311,True,0.571
17,0,20-May-2018,1,2,96,Sub17_Trial96_0,0,4,4,-41.205828,True,0.571
17,0,20-May-2018,1,2,96,Sub17_Trial96_0,0,5,5,8.244777,True,0.571
17,0,20-May-2018,1,2,96,Sub17_Trial96_0,0,6,6,-83.697576,True,0.571
17,0,20-May-2018,1,2,96,Sub17_Trial96_1,1,0,0,-92.129203,False,0.571
17,0,20-May-2018,1,2,96,Sub17_Trial96_1,1,1,1,-91.840892,False,0.571
17,0,20-May-2018,1,2,96,Sub17_Trial96_1,1,2,2,75.421344,False,0.571
17,0,20-May-2018,1,2,96,Sub17_Trial96_1,1,3,3,30.142288,False,0.571
17,0,20-May-2018,1,2,96,Sub17_Trial96_1,1,4,4,48.626264,False,0.571
17,0,20-May-2018,1,2,96,Sub17_Trial96_1,1,5,5,-40.697403,False,0.571
17,0,20-May-2018,1,2,96,Sub17_Trial96_1,1,6,6,78.188557,False,0.571
17,0,20-May-2018,1,2,97,Sub17_Trial97_0,0,0,0,-59.768964,True,0.555
17,0,20-May-2018,1,2,97,Sub17_Trial97_0,0,1,1,-97.222347,True,0.555
17,0,20-May-2018,1,2,97,Sub17_Trial97_0,0,2,2,40.660967,True,0.555
17,0,20-May-2018,1,2,97,Sub17_Trial97_0,0,3,3,-163.768857,True,0.555
17,0,20-May-2018,1,2,97,Sub17_Trial97_0,0,4,4,-174.100831,True,0.555
17,0,20-May-2018,1,2,97,Sub17_Trial97_0,0,5,5,-40.500744,True,0.555
17,0,20-May-2018,1,2,97,Sub17_Trial97_0,0,6,6,-26.27188,True,0.555
17,0,20-May-2018,1,2,97,Sub17_Trial97_1,1,0,0,-21.810015,False,0.555
17,0,20-May-2018,1,2,97,Sub17_Trial97_1,1,1,1,70.681732,False,0.555
17,0,20-May-2018,1,2,97,Sub17_Trial97_1,1,2,2,163.90638,False,0.555
17,0,20-May-2018,1,2,97,Sub17_Trial97_1,1,3,3,-13.951593,False,0.555
17,0,20-May-2018,1,2,97,Sub17_Trial97_1,1,4,4,71.290715,False,0.555
17,0,20-May-2018,1,2,97,Sub17_Trial97_1,1,5,5,-38.089885,False,0.555
17,0,20-May-2018,1,2,97,Sub17_Trial97_1,1,6,6,-81.592766,False,0.555
17,0,20-May-2018,1,2,98,Sub17_Trial98_0,0,0,0,-11.654984,True,1.009
17,0,20-May-2018,1,2,98,Sub17_Trial98_0,0,1,1,-3.477374,True,1.009
17,0,20-May-2018,1,2,98,Sub17_Trial98_0,0,2,2,142.996587,True,1.009
17,0,20-May-2018,1,2,98,Sub17_Trial98_0,0,3,3,-71.24722,True,1.009
17,0,20-May-2018,1,2,98,Sub17_Trial98_0,0,4,4,65.059481,True,1.009
17,0,20-May-2018,1,2,98,Sub17_Trial98_0,0,5,5,41.89353,True,1.009
17,0,20-May-2018,1,2,98,Sub17_Trial98_0,0,6,6,9.828633,True,1.009
17,0,20-May-2018,1,2,98,Sub17_Trial98_1,1,0,0,60.249789,False,1.009
17,0,20-May-2018,1,2,98,Sub17_Trial98_1,1,1,1,7.623121,False,1.009
17,0,20-May-2018,1,2,98,Sub17_Trial98_1,1,2,2,-51.020521,False,1.009
17,0,20-May-2018,1,2,98,Sub17_Trial98_1,1,3,3,-27.313827,False,1.009
17,0,20-May-2018,1,2,98,Sub17_Trial98_1,1,4,4,28.599506,False,1.009
17,0,20-May-2018,1,2,98,Sub17_Trial98_1,1,5,5,81.627352,False,1.009
17,0,20-May-2018,1,2,98,Sub17_Trial98_1,1,6,6,-69.136664,False,1.009
17,0,20-May-2018,1,2,99,Sub17_Trial99_0,0,0,0,40.434853,True,0.833
17,0,20-May-2018,1,2,99,Sub17_Trial99_0,0,1,1,133.769296,True,0.833
17,0,20-May-2018,1,2,99,Sub17_Trial99_0,0,2,2,-111.788773,True,0.833
17,0,20-May-2018,1,2,99,Sub17_Trial99_0,0,3,3,22.705484,True,0.833
17,0,20-May-2018,1,2,99,Sub17_Trial99_0,0,4,4,57.135078,True,0.833
17,0,20-May-2018,1,2,99,Sub17_Trial99_0,0,5,5,-137.906313,True,0.833
17,0,20-May-2018,1,2,99,Sub17_Trial99_0,0,6,6,5.007398,True,0.833
17,0,20-May-2018,1,2,99,Sub17_Trial99_1,1,0,0,132.419365,False,0.833
17,0,20-May-2018,1,2,99,Sub17_Trial99_1,1,1,1,100.631712,False,0.833
17,0,20-May-2018,1,2,99,Sub17_Trial99_1,1,2,2,44.035738,False,0.833
17,0,20-May-2018,1,2,99,Sub17_Trial99_1,1,3,3,29.044052,False,0.833
17,0,20-May-2018,1,2,99,Sub17_Trial99_1,1,4,4,37.684067,False,0.833
17,0,20-May-2018,1,2,99,Sub17_Trial99_1,1,5,5,-25.285335,False,0.833
17,0,20-May-2018,1,2,99,Sub17_Trial99_1,1,6,6,-16.974518,False,0.833
17,0,20-May-2018,1,2,100,Sub17_Trial100_0,0,0,0,167.154416,True,0.556
17,0,20-May-2018,1,2,100,Sub17_Trial100_0,0,1,1,-88.966015,True,0.556
17,0,20-May-2018,1,2,100,Sub17_Trial100_0,0,2,2,-163.223474,True,0.556
17,0,20-May-2018,1,2,100,Sub17_Trial100_0,0,3,3,-93.515305,True,0.556
17,0,20-May-2018,1,2,100,Sub17_Trial100_0,0,4,4,-0.298332,True,0.556
17,0,20-May-2018,1,2,100,Sub17_Trial100_0,0,5,5,-49.149594,True,0.556
17,0,20-May-2018,1,2,100,Sub17_Trial100_0,0,6,6,-25.100036,True,0.556
17,0,20-May-2018,1,2,100,Sub17_Trial100_1,1,0,0,97.890899,False,0.556
17,0,20-May-2018,1,2,100,Sub17_Trial100_1,1,1,1,18.399028,False,0.556
17,0,20-May-2018,1,2,100,Sub17_Trial100_1,1,2,2,170.013569,False,0.556
17,0,20-May-2018,1,2,100,Sub17_Trial100_1,1,3,3,-96.381469,False,0.556
17,0,20-May-2018,1,2,100,Sub17_Trial100_1,1,4,4,30.206235,False,0.556
17,0,20-May-2018,1,2,100,Sub17_Trial100_1,1,5,5,-78.706534,False,0.556
17,0,20-May-2018,1,2,100,Sub17_Trial100_1,1,6,6,-39.282142,False,0.556
17,0,20-May-2018,1,3,101,Sub17_Trial101_0,0,0,0,57.653039,False,1.407
17,0,20-May-2018,1,3,101,Sub17_Trial101_0,0,1,1,102.501421,False,1.407
17,0,20-May-2018,1,3,101,Sub17_Trial101_0,0,2,2,-21.717412,False,1.407
17,0,20-May-2018,1,3,101,Sub17_Trial101_0,0,3,3,24.314834,False,1.407
17,0,20-May-2018,1,3,101,Sub17_Trial101_0,0,4,4,-38.052774,False,1.407
17,0,20-May-2018,1,3,101,Sub17_Trial101_0,0,5,5,-122.866478,False,1.407
17,0,20-May-2018,1,3,101,Sub17_Trial101_0,0,6,6,-121.885392,False,1.407
17,0,20-May-2018,1,3,101,Sub17_Trial101_1,1,0,0,90.471474,True,1.407
17,0,20-May-2018,1,3,101,Sub17_Trial101_1,1,1,1,23.260305,True,1.407
17,0,20-May-2018,1,3,101,Sub17_Trial101_1,1,2,2,-146.29107,True,1.407
17,0,20-May-2018,1,3,101,Sub17_Trial101_1,1,3,3,-101.930589,True,1.407
17,0,20-May-2018,1,3,101,Sub17_Trial101_1,1,4,4,-77.313192,True,1.407
17,0,20-May-2018,1,3,101,Sub17_Trial101_1,1,5,5,-2.002424,True,1.407
17,0,20-May-2018,1,3,101,Sub17_Trial101_1,1,6,6,33.383206,True,1.407
17,0,20-May-2018,1,3,102,Sub17_Trial102_0,0,0,0,108.628435,True,1.768
17,0,20-May-2018,1,3,102,Sub17_Trial102_0,0,1,1,-49.659445,True,1.768
17,0,20-May-2018,1,3,102,Sub17_Trial102_0,0,2,2,36.172413,True,1.768
17,0,20-May-2018,1,3,102,Sub17_Trial102_0,0,3,3,43.051496,True,1.768
17,0,20-May-2018,1,3,102,Sub17_Trial102_0,0,4,4,86.313406,True,1.768
17,0,20-May-2018,1,3,102,Sub17_Trial102_0,0,5,5,38.854089,True,1.768
17,0,20-May-2018,1,3,102,Sub17_Trial102_0,0,6,6,-86.335181,True,1.768
17,0,20-May-2018,1,3,102,Sub17_Trial102_1,1,0,0,-59.753931,False,1.768
17,0,20-May-2018,1,3,102,Sub17_Trial102_1,1,1,1,-15.462117,False,1.768
17,0,20-May-2018,1,3,102,Sub17_Trial102_1,1,2,2,-13.754812,False,1.768
17,0,20-May-2018,1,3,102,Sub17_Trial102_1,1,3,3,40.276914,False,1.768
17,0,20-May-2018,1,3,102,Sub17_Trial102_1,1,4,4,66.927337,False,1.768
17,0,20-May-2018,1,3,102,Sub17_Trial102_1,1,5,5,43.937255,False,1.768
17,0,20-May-2018,1,3,102,Sub17_Trial102_1,1,6,6,-43.931711,False,1.768
17,0,20-May-2018,1,3,103,Sub17_Trial103_0,0,0,0,29.530244,True,0.975
17,0,20-May-2018,1,3,103,Sub17_Trial103_0,0,1,1,82.205505,True,0.975
17,0,20-May-2018,1,3,103,Sub17_Trial103_0,0,2,2,-23.407415,True,0.975
17,0,20-May-2018,1,3,103,Sub17_Trial103_0,0,3,3,128.637845,True,0.975
17,0,20-May-2018,1,3,103,Sub17_Trial103_0,0,4,4,69.613019,True,0.975
17,0,20-May-2018,1,3,103,Sub17_Trial103_0,0,5,5,9.643801,True,0.975
17,0,20-May-2018,1,3,103,Sub17_Trial103_0,0,6,6,-70.02958,True,0.975
17,0,20-May-2018,1,3,103,Sub17_Trial103_1,1,0,0,-64.103547,False,0.975
17,0,20-May-2018,1,3,103,Sub17_Trial103_1,1,1,1,41.607272,False,0.975
17,0,20-May-2018,1,3,103,Sub17_Trial103_1,1,2,2,-85.186443,False,0.975
17,0,20-May-2018,1,3,103,Sub17_Trial103_1,1,3,3,-42.618308,False,0.975
17,0,20-May-2018,1,3,103,Sub17_Trial103_1,1,4,4,109.50448,False,0.975
17,0,20-May-2018,1,3,103,Sub17_Trial103_1,1,5,5,-115.994893,False,0.975
17,0,20-May-2018,1,3,103,Sub17_Trial103_1,1,6,6,-62.495852,False,0.975
17,0,20-May-2018,1,3,104,Sub17_Trial104_0,0,0,0,115.884825,True,0.922
17,0,20-May-2018,1,3,104,Sub17_Trial104_0,0,1,1,-197.592157,True,0.922
17,0,20-May-2018,1,3,104,Sub17_Trial104_0,0,2,2,-32.084854,True,0.922
17,0,20-May-2018,1,3,104,Sub17_Trial104_0,0,3,3,13.582886,True,0.922
17,0,20-May-2018,1,3,104,Sub17_Trial104_0,0,4,4,-20.505615,True,0.922
17,0,20-May-2018,1,3,104,Sub17_Trial104_0,0,5,5,51.121754,True,0.922
17,0,20-May-2018,1,3,104,Sub17_Trial104_0,0,6,6,-16.030104,True,0.922
17,0,20-May-2018,1,3,104,Sub17_Trial104_1,1,0,0,68.150939,False,0.922
17,0,20-May-2018,1,3,104,Sub17_Trial104_1,1,1,1,-81.770234,False,0.922
17,0,20-May-2018,1,3,104,Sub17_Trial104_1,1,2,2,74.565062,False,0.922
17,0,20-May-2018,1,3,104,Sub17_Trial104_1,1,3,3,76.651344,False,0.922
17,0,20-May-2018,1,3,104,Sub17_Trial104_1,1,4,4,68.094723,False,0.922
17,0,20-May-2018,1,3,104,Sub17_Trial104_1,1,5,5,67.352737,False,0.922
17,0,20-May-2018,1,3,104,Sub17_Trial104_1,1,6,6,35.608763,False,0.922
17,0,20-May-2018,1,3,105,Sub17_Trial105_0,0,0,0,13.816901,True,1.878
17,0,20-May-2018,1,3,105,Sub17_Trial105_0,0,1,1,-104.053691,True,1.878
17,0,20-May-2018,1,3,105,Sub17_Trial105_0,0,2,2,-139.090465,True,1.878
17,0,20-May-2018,1,3,105,Sub17_Trial105_0,0,3,3,-42.890779,True,1.878
17,0,20-May-2018,1,3,105,Sub17_Trial105_0,0,4,4,65.015862,True,1.878
17,0,20-May-2018,1,3,105,Sub17_Trial105_0,0,5,5,103.350711,True,1.878
17,0,20-May-2018,1,3,105,Sub17_Trial105_0,0,6,6,-40.992012,True,1.878
17,0,20-May-2018,1,3,105,Sub17_Trial105_1,1,0,0,-35.874523,False,1.878
17,0,20-May-2018,1,3,105,Sub17_Trial105_1,1,1,1,39.441983,False,1.878
17,0,20-May-2018,1,3,105,Sub17_Trial105_1,1,2,2,135.870118,False,1.878
17,0,20-May-2018,1,3,105,Sub17_Trial105_1,1,3,3,24.278002,False,1.878
17,0,20-May-2018,1,3,105,Sub17_Trial105_1,1,4,4,-130.503132,False,1.878
17,0,20-May-2018,1,3,105,Sub17_Trial105_1,1,5,5,-79.748948,False,1.878
17,0,20-May-2018,1,3,105,Sub17_Trial105_1,1,6,6,174.144292,False,1.878
17,0,20-May-2018,1,3,106,Sub17_Trial106_0,0,0,0,80.178526,True,1.068
17,0,20-May-2018,1,3,106,Sub17_Trial106_0,0,1,1,-142.725413,True,1.068
