subj,patient,date,session,part,trial,stim,stim_order,segment,segment_time,pitch,response,rt
15,0,19-May-2018,1,1,1,Sub15_Trial1_0,0,0,0,92.095857,True,18.928
15,0,19-May-2018,1,1,1,Sub15_Trial1_0,0,1,1,127.608657,True,18.928
15,0,19-May-2018,1,1,1,Sub15_Trial1_0,0,2,2,-93.455547,True,18.928
15,0,19-May-2018,1,1,1,Sub15_Trial1_0,0,3,3,-135.383488,True,18.928
15,0,19-May-2018,1,1,1,Sub15_Trial1_0,0,4,4,-20.736719,True,18.928
15,0,19-May-2018,1,1,1,Sub15_Trial1_0,0,5,5,133.560737,True,18.928
15,0,19-May-2018,1,1,1,Sub15_Trial1_0,0,6,6,29.465948,True,18.928
15,0,19-May-2018,1,1,1,Sub15_Trial1_1,1,0,0,-83.501624,False,18.928
15,0,19-May-2018,1,1,1,Sub15_Trial1_1,1,1,1,7.327901,False,18.928
15,0,19-May-2018,1,1,1,Sub15_Trial1_1,1,2,2,-89.31235,False,18.928
15,0,19-May-2018,1,1,1,Sub15_Trial1_1,1,3,3,50.593775,False,18.928
15,0,19-May-2018,1,1,1,Sub15_Trial1_1,1,4,4,87.491237,False,18.928
15,0,19-May-2018,1,1,1,Sub15_Trial1_1,1,5,5,-3.863361,False,18.928
15,0,19-May-2018,1,1,1,Sub15_Trial1_1,1,6,6,-17.435927,False,18.928
15,0,19-May-2018,1,1,2,Sub15_Trial2_0,0,0,0,5.990156,False,1.876
15,0,19-May-2018,1,1,2,Sub15_Trial2_0,0,1,1,-114.827219,False,1.876
15,0,19-May-2018,1,1,2,Sub15_Trial2_0,0,2,2,-61.307372,False,1.876
15,0,19-May-2018,1,1,2,Sub15_Trial2_0,0,3,3,73.294202,False,1.876
15,0,19-May-2018,1,1,2,Sub15_Trial2_0,0,4,4,-31.574968,False,1.876
15,0,19-May-2018,1,1,2,Sub15_Trial2_0,0,5,5,1.360358,False,1.876
15,0,19-May-2018,1,1,2,Sub15_Trial2_0,0,6,6,-16.920645,False,1.876
15,0,19-May-2018,1,1,2,Sub15_Trial2_1,1,0,0,-65.546879,True,1.876
15,0,19-May-2018,1,1,2,Sub15_Trial2_1,1,1,1,81.604052,True,1.876
15,0,19-May-2018,1,1,2,Sub15_Trial2_1,1,2,2,-180.277772,True,1.876
15,0,19-May-2018,1,1,2,Sub15_Trial2_1,1,3,3,90.382945,True,1.876
15,0,19-May-2018,1,1,2,Sub15_Trial2_1,1,4,4,75.205022,True,1.876
15,0,19-May-2018,1,1,2,Sub15_Trial2_1,1,5,5,125.269437,True,1.876
15,0,19-May-2018,1,1,2,Sub15_Trial2_1,1,6,6,-39.274032,True,1.876
15,0,19-May-2018,1,1,3,Sub15_Trial3_0,0,0,0,38.718442,True,2.195
15,0,19-May-2018,1,1,3,Sub15_Trial3_0,0,1,1,-39.59013,True,2.195
15,0,19-May-2018,1,1,3,Sub15_Trial3_0,0,2,2,46.159136,True,2.195
15,0,19-May-2018,1,1,3,Sub15_Trial3_0,0,3,3,-61.754563,True,2.195
15,0,19-May-2018,1,1,3,Sub15_Trial3_0,0,4,4,-45.944199,True,2.195
15,0,19-May-2018,1,1,3,Sub15_Trial3_0,0,5,5,-50.495605,True,2.195
15,0,19-May-2018,1,1,3,Sub15_Trial3_0,0,6,6,49.479452,True,2.195
15,0,19-May-2018,1,1,3,Sub15_Trial3_1,1,0,0,58.487323,False,2.195
15,0,19-May-2018,1,1,3,Sub15_Trial3_1,1,1,1,-31.134749,False,2.195
15,0,19-May-2018,1,1,3,Sub15_Trial3_1,1,2,2,77.909064,False,2.195
15,0,19-May-2018,1,1,3,Sub15_Trial3_1,1,3,3,-151.315406,False,2.195
15,0,19-May-2018,1,1,3,Sub15_Trial3_1,1,4,4,-151.823425,False,2.195
15,0,19-May-2018,1,1,3,Sub15_Trial3_1,1,5,5,-41.573668,False,2.195
15,0,19-May-2018,1,1,3,Sub15_Trial3_1,1,6,6,-101.592687,False,2.195
15,0,19-May-2018,1,1,4,Sub15_Trial4_0,0,0,0,69.245871,False,1.145
15,0,19-May-2018,1,1,4,Sub15_Trial4_0,0,1,1,28.173084,False,1.145
15,0,19-May-2018,1,1,4,Sub15_Trial4_0,0,2,2,-156.298307,False,1.145
15,0,19-May-2018,1,1,4,Sub15_Trial4_0,0,3,3,66.480067,False,1.145
15,0,19-May-2018,1,1,4,Sub15_Trial4_0,0,4,4,-130.019919,False,1.145
15,0,19-May-2018,1,1,4,Sub15_Trial4_0,0,5,5,40.998882,False,1.145
15,0,19-May-2018,1,1,4,Sub15_Trial4_0,0,6,6,-148.745974,False,1.145
15,0,19-May-2018,1,1,4,Sub15_Trial4_1,1,0,0,-48.61803,True,1.145
15,0,19-May-2018,1,1,4,Sub15_Trial4_1,1,1,1,-3.92606,True,1.145
15,0,19-May-2018,1,1,4,Sub15_Trial4_1,1,2,2,-144.601818,True,1.145
15,0,19-May-2018,1,1,4,Sub15_Trial4_1,1,3,3,105.585111,True,1.145
15,0,19-May-2018,1,1,4,Sub15_Trial4_1,1,4,4,31.441193,True,1.145
15,0,19-May-2018,1,1,4,Sub15_Trial4_1,1,5,5,128.567143,True,1.145
15,0,19-May-2018,1,1,4,Sub15_Trial4_1,1,6,6,-64.159718,True,1.145
15,0,19-May-2018,1,1,5,Sub15_Trial5_0,0,0,0,-114.18088,True,0.977
15,0,19-May-2018,1,1,5,Sub15_Trial5_0,0,1,1,35.077146,True,0.977
15,0,19-May-2018,1,1,5,Sub15_Trial5_0,0,2,2,-37.382091,True,0.977
15,0,19-May-2018,1,1,5,Sub15_Trial5_0,0,3,3,-52.258864,True,0.977
15,0,19-May-2018,1,1,5,Sub15_Trial5_0,0,4,4,49.161352,True,0.977
15,0,19-May-2018,1,1,5,Sub15_Trial5_0,0,5,5,-36.920041,True,0.977
15,0,19-May-2018,1,1,5,Sub15_Trial5_0,0,6,6,-111.977652,True,0.977
15,0,19-May-2018,1,1,5,Sub15_Trial5_1,1,0,0,-14.039847,False,0.977
15,0,19-May-2018,1,1,5,Sub15_Trial5_1,1,1,1,-50.394804,False,0.977
15,0,19-May-2018,1,1,5,Sub15_Trial5_1,1,2,2,-36.426267,False,0.977
15,0,19-May-2018,1,1,5,Sub15_Trial5_1,1,3,3,-121.69053,False,0.977
15,0,19-May-2018,1,1,5,Sub15_Trial5_1,1,4,4,76.712346,False,0.977
15,0,19-May-2018,1,1,5,Sub15_Trial5_1,1,5,5,-116.566216,False,0.977
15,0,19-May-2018,1,1,5,Sub15_Trial5_1,1,6,6,125.641254,False,0.977
15,0,19-May-2018,1,1,6,Sub15_Trial6_0,0,0,0,58.451646,False,1.737
15,0,19-May-2018,1,1,6,Sub15_Trial6_0,0,1,1,-44.442666,False,1.737
15,0,19-May-2018,1,1,6,Sub15_Trial6_0,0,2,2,-61.45407,False,1.737
15,0,19-May-2018,1,1,6,Sub15_Trial6_0,0,3,3,-57.137734,False,1.737
15,0,19-May-2018,1,1,6,Sub15_Trial6_0,0,4,4,-76.446922,False,1.737
15,0,19-May-2018,1,1,6,Sub15_Trial6_0,0,5,5,-57.248536,False,1.737
15,0,19-May-2018,1,1,6,Sub15_Trial6_0,0,6,6,-113.254249,False,1.737
15,0,19-May-2018,1,1,6,Sub15_Trial6_1,1,0,0,-47.565908,True,1.737
15,0,19-May-2018,1,1,6,Sub15_Trial6_1,1,1,1,57.104104,True,1.737
15,0,19-May-2018,1,1,6,Sub15_Trial6_1,1,2,2,-84.194073,True,1.737
15,0,19-May-2018,1,1,6,Sub15_Trial6_1,1,3,3,31.417635,True,1.737
15,0,19-May-2018,1,1,6,Sub15_Trial6_1,1,4,4,67.042764,True,1.737
15,0,19-May-2018,1,1,6,Sub15_Trial6_1,1,5,5,-84.667822,True,1.737
15,0,19-May-2018,1,1,6,Sub15_Trial6_1,1,6,6,35.586595,True,1.737
15,0,19-May-2018,1,1,7,Sub15_Trial7_0,0,0,0,-113.058154,False,1.116
15,0,19-May-2018,1,1,7,Sub15_Trial7_0,0,1,1,-62.650075,False,1.116
15,0,19-May-2018,1,1,7,Sub15_Trial7_0,0,2,2,60.627081,False,1.116
15,0,19-May-2018,1,1,7,Sub15_Trial7_0,0,3,3,-84.157805,False,1.116
15,0,19-May-2018,1,1,7,Sub15_Trial7_0,0,4,4,67.80705,False,1.116
15,0,19-May-2018,1,1,7,Sub15_Trial7_0,0,5,5,-133.028838,False,1.116
15,0,19-May-2018,1,1,7,Sub15_Trial7_0,0,6,6,72.016158,False,1.116
15,0,19-May-2018,1,1,7,Sub15_Trial7_1,1,0,0,-75.97229,True,1.116
15,0,19-May-2018,1,1,7,Sub15_Trial7_1,1,1,1,-59.406161,True,1.116
15,0,19-May-2018,1,1,7,Sub15_Trial7_1,1,2,2,-44.536765,True,1.116
15,0,19-May-2018,1,1,7,Sub15_Trial7_1,1,3,3,56.139124,True,1.116
15,0,19-May-2018,1,1,7,Sub15_Trial7_1,1,4,4,-188.062051,True,1.116
15,0,19-May-2018,1,1,7,Sub15_Trial7_1,1,5,5,166.120359,True,1.116
15,0,19-May-2018,1,1,7,Sub15_Trial7_1,1,6,6,-61.119349,True,1.116
15,0,19-May-2018,1,1,8,Sub15_Trial8_0,0,0,0,-0.308229,False,1.672
15,0,19-May-2018,1,1,8,Sub15_Trial8_0,0,1,1,90.949978,False,1.672
15,0,19-May-2018,1,1,8,Sub15_Trial8_0,0,2,2,112.541844,False,1.672
15,0,19-May-2018,1,1,8,Sub15_Trial8_0,0,3,3,49.785856,False,1.672
15,0,19-May-2018,1,1,8,Sub15_Trial8_0,0,4,4,101.883963,False,1.672
15,0,19-May-2018,1,1,8,Sub15_Trial8_0,0,5,5,-70.960685,False,1.672
15,0,19-May-2018,1,1,8,Sub15_Trial8_0,0,6,6,15.521086,False,1.672
15,0,19-May-2018,1,1,8,Sub15_Trial8_1,1,0,0,-18.994388,True,1.672
15,0,19-May-2018,1,1,8,Sub15_Trial8_1,1,1,1,80.886934,True,1.672
15,0,19-May-2018,1,1,8,Sub15_Trial8_1,1,2,2,-31.235745,True,1.672
15,0,19-May-2018,1,1,8,Sub15_Trial8_1,1,3,3,46.77761,True,1.672
15,0,19-May-2018,1,1,8,Sub15_Trial8_1,1,4,4,-37.736145,True,1.672
15,0,19-May-2018,1,1,8,Sub15_Trial8_1,1,5,5,67.662641,True,1.672
15,0,19-May-2018,1,1,8,Sub15_Trial8_1,1,6,6,-114.208038,True,1.672
15,0,19-May-2018,1,1,9,Sub15_Trial9_0,0,0,0,65.582852,False,1.108
15,0,19-May-2018,1,1,9,Sub15_Trial9_0,0,1,1,-25.981854,False,1.108
15,0,19-May-2018,1,1,9,Sub15_Trial9_0,0,2,2,39.869247,False,1.108
15,0,19-May-2018,1,1,9,Sub15_Trial9_0,0,3,3,74.209647,False,1.108
15,0,19-May-2018,1,1,9,Sub15_Trial9_0,0,4,4,-26.630937,False,1.108
15,0,19-May-2018,1,1,9,Sub15_Trial9_0,0,5,5,94.78465,False,1.108
15,0,19-May-2018,1,1,9,Sub15_Trial9_0,0,6,6,1.680003,False,1.108
15,0,19-May-2018,1,1,9,Sub15_Trial9_1,1,0,0,-137.573183,True,1.108
15,0,19-May-2018,1,1,9,Sub15_Trial9_1,1,1,1,-150.695598,True,1.108
15,0,19-May-2018,1,1,9,Sub15_Trial9_1,1,2,2,-151.869497,True,1.108
15,0,19-May-2018,1,1,9,Sub15_Trial9_1,1,3,3,92.097219,True,1.108
15,0,19-May-2018,1,1,9,Sub15_Trial9_1,1,4,4,-14.877487,True,1.108
15,0,19-May-2018,1,1,9,Sub15_Trial9_1,1,5,5,-194.746527,True,1.108
15,0,19-May-2018,1,1,9,Sub15_Trial9_1,1,6,6,61.137857,True,1.108
15,0,19-May-2018,1,1,10,Sub15_Trial10_0,0,0,0,-76.010508,False,2.28
15,0,19-May-2018,1,1,10,Sub15_Trial10_0,0,1,1,-95.308143,False,2.28
15,0,19-May-2018,1,1,10,Sub15_Trial10_0,0,2,2,9.987532,False,2.28
15,0,19-May-2018,1,1,10,Sub15_Trial10_0,0,3,3,-90.606281,False,2.28
15,0,19-May-2018,1,1,10,Sub15_Trial10_0,0,4,4,4.952164,False,2.28
15,0,19-May-2018,1,1,10,Sub15_Trial10_0,0,5,5,81.802569,False,2.28
15,0,19-May-2018,1,1,10,Sub15_Trial10_0,0,6,6,-51.917828,False,2.28
15,0,19-May-2018,1,1,10,Sub15_Trial10_1,1,0,0,97.989338,True,2.28
15,0,19-May-2018,1,1,10,Sub15_Trial10_1,1,1,1,59.503994,True,2.28
15,0,19-May-2018,1,1,10,Sub15_Trial10_1,1,2,2,-191.640301,True,2.28
15,0,19-May-2018,1,1,10,Sub15_Trial10_1,1,3,3,31.609989,True,2.28
15,0,19-May-2018,1,1,10,Sub15_Trial10_1,1,4,4,74.955982,True,2.28
15,0,19-May-2018,1,1,10,Sub15_Trial10_1,1,5,5,-42.935447,True,2.28
15,0,19-May-2018,1,1,10,Sub15_Trial10_1,1,6,6,-18.856478,True,2.28
15,0,19-May-2018,1,1,11,Sub15_Trial11_0,0,0,0,-82.832287,True,0.718
15,0,19-May-2018,1,1,11,Sub15_Trial11_0,0,1,1,86.86746,True,0.718
15,0,19-May-2018,1,1,11,Sub15_Trial11_0,0,2,2,76.387953,True,0.718
15,0,19-May-2018,1,1,11,Sub15_Trial11_0,0,3,3,9.030522,True,0.718
15,0,19-May-2018,1,1,11,Sub15_Trial11_0,0,4,4,-135.07563,True,0.718
15,0,19-May-2018,1,1,11,Sub15_Trial11_0,0,5,5,114.606432,True,0.718
15,0,19-May-2018,1,1,11,Sub15_Trial11_0,0,6,6,-34.488653,True,0.718
15,0,19-May-2018,1,1,11,Sub15_Trial11_1,1,0,0,-5.724046,False,0.718
15,0,19-May-2018,1,1,11,Sub15_Trial11_1,1,1,1,-72.323273,False,0.718
15,0,19-May-2018,1,1,11,Sub15_Trial11_1,1,2,2,-67.154485,False,0.718
15,0,19-May-2018,1,1,11,Sub15_Trial11_1,1,3,3,72.578302,False,0.718
15,0,19-May-2018,1,1,11,Sub15_Trial11_1,1,4,4,-0.223033,False,0.718
15,0,19-May-2018,1,1,11,Sub15_Trial11_1,1,5,5,-42.469227,False,0.718
15,0,19-May-2018,1,1,11,Sub15_Trial11_1,1,6,6,-87.805246,False,0.718
15,0,19-May-2018,1,1,12,Sub15_Trial12_0,0,0,0,-37.544991,True,1.44
15,0,19-May-2018,1,1,12,Sub15_Trial12_0,0,1,1,-37.162092,True,1.44
15,0,19-May-2018,1,1,12,Sub15_Trial12_0,0,2,2,-24.909205,True,1.44
15,0,19-May-2018,1,1,12,Sub15_Trial12_0,0,3,3,11.424149,True,1.44
15,0,19-May-2018,1,1,12,Sub15_Trial12_0,0,4,4,-158.148973,True,1.44
15,0,19-May-2018,1,1,12,Sub15_Trial12_0,0,5,5,88.883903,True,1.44
15,0,19-May-2018,1,1,12,Sub15_Trial12_0,0,6,6,61.150113,True,1.44
15,0,19-May-2018,1,1,12,Sub15_Trial12_1,1,0,0,-74.103584,False,1.44
15,0,19-May-2018,1,1,12,Sub15_Trial12_1,1,1,1,100.654171,False,1.44
15,0,19-May-2018,1,1,12,Sub15_Trial12_1,1,2,2,47.019125,False,1.44
15,0,19-May-2018,1,1,12,Sub15_Trial12_1,1,3,3,-24.702296,False,1.44
15,0,19-May-2018,1,1,12,Sub15_Trial12_1,1,4,4,-105.409182,False,1.44
15,0,19-May-2018,1,1,12,Sub15_Trial12_1,1,5,5,52.616848,False,1.44
15,0,19-May-2018,1,1,12,Sub15_Trial12_1,1,6,6,-60.649771,False,1.44
15,0,19-May-2018,1,1,13,Sub15_Trial13_0,0,0,0,-35.897579,False,0.607
15,0,19-May-2018,1,1,13,Sub15_Trial13_0,0,1,1,176.937759,False,0.607
15,0,19-May-2018,1,1,13,Sub15_Trial13_0,0,2,2,-133.154882,False,0.607
15,0,19-May-2018,1,1,13,Sub15_Trial13_0,0,3,3,38.994064,False,0.607
15,0,19-May-2018,1,1,13,Sub15_Trial13_0,0,4,4,17.576696,False,0.607
15,0,19-May-2018,1,1,13,Sub15_Trial13_0,0,5,5,-109.168853,False,0.607
15,0,19-May-2018,1,1,13,Sub15_Trial13_0,0,6,6,-2.459694,False,0.607
15,0,19-May-2018,1,1,13,Sub15_Trial13_1,1,0,0,-56.263212,True,0.607
15,0,19-May-2018,1,1,13,Sub15_Trial13_1,1,1,1,50.256081,True,0.607
15,0,19-May-2018,1,1,13,Sub15_Trial13_1,1,2,2,-29.680563,True,0.607
15,0,19-May-2018,1,1,13,Sub15_Trial13_1,1,3,3,23.755465,True,0.607
15,0,19-May-2018,1,1,13,Sub15_Trial13_1,1,4,4,-80.346574,True,0.607
15,0,19-May-2018,1,1,13,Sub15_Trial13_1,1,5,5,152.620054,True,0.607
15,0,19-May-2018,1,1,13,Sub15_Trial13_1,1,6,6,-85.140325,True,0.607
15,0,19-May-2018,1,1,14,Sub15_Trial14_0,0,0,0,-43.975927,True,2.262
15,0,19-May-2018,1,1,14,Sub15_Trial14_0,0,1,1,92.886767,True,2.262
15,0,19-May-2018,1,1,14,Sub15_Trial14_0,0,2,2,-153.245201,True,2.262
15,0,19-May-2018,1,1,14,Sub15_Trial14_0,0,3,3,-7.01943,True,2.262
15,0,19-May-2018,1,1,14,Sub15_Trial14_0,0,4,4,42.08646,True,2.262
15,0,19-May-2018,1,1,14,Sub15_Trial14_0,0,5,5,-95.915989,True,2.262
15,0,19-May-2018,1,1,14,Sub15_Trial14_0,0,6,6,-26.744062,True,2.262
15,0,19-May-2018,1,1,14,Sub15_Trial14_1,1,0,0,43.735406,False,2.262
15,0,19-May-2018,1,1,14,Sub15_Trial14_1,1,1,1,2.109515,False,2.262
15,0,19-May-2018,1,1,14,Sub15_Trial14_1,1,2,2,-18.097838,False,2.262
15,0,19-May-2018,1,1,14,Sub15_Trial14_1,1,3,3,9.363499,False,2.262
15,0,19-May-2018,1,1,14,Sub15_Trial14_1,1,4,4,69.059708,False,2.262
15,0,19-May-2018,1,1,14,Sub15_Trial14_1,1,5,5,-63.498436,False,2.262
15,0,19-May-2018,1,1,14,Sub15_Trial14_1,1,6,6,168.424546,False,2.262
15,0,19-May-2018,1,1,15,Sub15_Trial15_0,0,0,0,-36.801075,False,0.662
15,0,19-May-2018,1,1,15,Sub15_Trial15_0,0,1,1,52.927831,False,0.662
15,0,19-May-2018,1,1,15,Sub15_Trial15_0,0,2,2,-54.852855,False,0.662
15,0,19-May-2018,1,1,15,Sub15_Trial15_0,0,3,3,36.184141,False,0.662
15,0,19-May-2018,1,1,15,Sub15_Trial15_0,0,4,4,62.196866,False,0.662
15,0,19-May-2018,1,1,15,Sub15_Trial15_0,0,5,5,25.887505,False,0.662
15,0,19-May-2018,1,1,15,Sub15_Trial15_0,0,6,6,-102.34803,False,0.662
15,0,19-May-2018,1,1,15,Sub15_Trial15_1,1,0,0,4.354168,True,0.662
15,0,19-May-2018,1,1,15,Sub15_Trial15_1,1,1,1,-29.415902,True,0.662
15,0,19-May-2018,1,1,15,Sub15_Trial15_1,1,2,2,19.696292,True,0.662
15,0,19-May-2018,1,1,15,Sub15_Trial15_1,1,3,3,-59.779158,True,0.662
15,0,19-May-2018,1,1,15,Sub15_Trial15_1,1,4,4,-7.715368,True,0.662
15,0,19-May-2018,1,1,15,Sub15_Trial15_1,1,5,5,165.462389,True,0.662
15,0,19-May-2018,1,1,15,Sub15_Trial15_1,1,6,6,-156.215983,True,0.662
15,0,19-May-2018,1,1,16,Sub15_Trial16_0,0,0,0,-42.698451,False,0.37
15,0,19-May-2018,1,1,16,Sub15_Trial16_0,0,1,1,29.023099,False,0.37
15,0,19-May-2018,1,1,16,Sub15_Trial16_0,0,2,2,-111.59081,False,0.37
15,0,19-May-2018,1,1,16,Sub15_Trial16_0,0,3,3,-82.105087,False,0.37
15,0,19-May-2018,1,1,16,Sub15_Trial16_0,0,4,4,-95.120371,False,0.37
15,0,19-May-2018,1,1,16,Sub15_Trial16_0,0,5,5,-60.746808,False,0.37
15,0,19-May-2018,1,1,16,Sub15_Trial16_0,0,6,6,-82.959961,False,0.37
15,0,19-May-2018,1,1,16,Sub15_Trial16_1,1,0,0,6.760752,True,0.37
15,0,19-May-2018,1,1,16,Sub15_Trial16_1,1,1,1,31.777263,True,0.37
15,0,19-May-2018,1,1,16,Sub15_Trial16_1,1,2,2,68.907179,True,0.37
15,0,19-May-2018,1,1,16,Sub15_Trial16_1,1,3,3,-40.100847,True,0.37
15,0,19-May-2018,1,1,16,Sub15_Trial16_1,1,4,4,99.060163,True,0.37
15,0,19-May-2018,1,1,16,Sub15_Trial16_1,1,5,5,95.943708,True,0.37
15,0,19-May-2018,1,1,16,Sub15_Trial16_1,1,6,6,41.085375,True,0.37
15,0,19-May-2018,1,1,17,Sub15_Trial17_0,0,0,0,56.800348,False,0.896
15,0,19-May-2018,1,1,17,Sub15_Trial17_0,0,1,1,17.290163,False,0.896
15,0,19-May-2018,1,1,17,Sub15_Trial17_0,0,2,2,51.485274,False,0.896
15,0,19-May-2018,1,1,17,Sub15_Trial17_0,0,3,3,-12.85065,False,0.896
15,0,19-May-2018,1,1,17,Sub15_Trial17_0,0,4,4,2.569047,False,0.896
15,0,19-May-2018,1,1,17,Sub15_Trial17_0,0,5,5,38.521599,False,0.896
15,0,19-May-2018,1,1,17,Sub15_Trial17_0,0,6,6,-14.596731,False,0.896
15,0,19-May-2018,1,1,17,Sub15_Trial17_1,1,0,0,66.153128,True,0.896
15,0,19-May-2018,1,1,17,Sub15_Trial17_1,1,1,1,114.602225,True,0.896
15,0,19-May-2018,1,1,17,Sub15_Trial17_1,1,2,2,104.692734,True,0.896
15,0,19-May-2018,1,1,17,Sub15_Trial17_1,1,3,3,24.877143,True,0.896
15,0,19-May-2018,1,1,17,Sub15_Trial17_1,1,4,4,5.349913,True,0.896
15,0,19-May-2018,1,1,17,Sub15_Trial17_1,1,5,5,116.576844,True,0.896
15,0,19-May-2018,1,1,17,Sub15_Trial17_1,1,6,6,19.311775,True,0.896
15,0,19-May-2018,1,1,18,Sub15_Trial18_0,0,0,0,112.955593,True,2.187
15,0,19-May-2018,1,1,18,Sub15_Trial18_0,0,1,1,-50.348644,True,2.187
15,0,19-May-2018,1,1,18,Sub15_Trial18_0,0,2,2,-69.826744,True,2.187
15,0,19-May-2018,1,1,18,Sub15_Trial18_0,0,3,3,55.899641,True,2.187
15,0,19-May-2018,1,1,18,Sub15_Trial18_0,0,4,4,-127.593184,True,2.187
15,0,19-May-2018,1,1,18,Sub15_Trial18_0,0,5,5,-43.970562,True,2.187
15,0,19-May-2018,1,1,18,Sub15_Trial18_0,0,6,6,49.578673,True,2.187
15,0,19-May-2018,1,1,18,Sub15_Trial18_1,1,0,0,-71.091219,False,2.187
15,0,19-May-2018,1,1,18,Sub15_Trial18_1,1,1,1,-54.531847,False,2.187
15,0,19-May-2018,1,1,18,Sub15_Trial18_1,1,2,2,-60.332805,False,2.187
15,0,19-May-2018,1,1,18,Sub15_Trial18_1,1,3,3,-33.553795,False,2.187
15,0,19-May-2018,1,1,18,Sub15_Trial18_1,1,4,4,-0.74098,False,2.187
15,0,19-May-2018,1,1,18,Sub15_Trial18_1,1,5,5,-4.382342,False,2.187
15,0,19-May-2018,1,1,18,Sub15_Trial18_1,1,6,6,46.607524,False,2.187
15,0,19-May-2018,1,1,19,Sub15_Trial19_0,0,0,0,73.47081,False,1.505
15,0,19-May-2018,1,1,19,Sub15_Trial19_0,0,1,1,79.611379,False,1.505
15,0,19-May-2018,1,1,19,Sub15_Trial19_0,0,2,2,81.625108,False,1.505
15,0,19-May-2018,1,1,19,Sub15_Trial19_0,0,3,3,-34.377157,False,1.505
15,0,19-May-2018,1,1,19,Sub15_Trial19_0,0,4,4,-148.046653,False,1.505
15,0,19-May-2018,1,1,19,Sub15_Trial19_0,0,5,5,123.377963,False,1.505
15,0,19-May-2018,1,1,19,Sub15_Trial19_0,0,6,6,-31.485054,False,1.505
15,0,19-May-2018,1,1,19,Sub15_Trial19_1,1,0,0,-33.070527,True,1.505
15,0,19-May-2018,1,1,19,Sub15_Trial19_1,1,1,1,125.071308,True,1.505
15,0,19-May-2018,1,1,19,Sub15_Trial19_1,1,2,2,-21.449583,True,1.505
15,0,19-May-2018,1,1,19,Sub15_Trial19_1,1,3,3,123.355355,True,1.505
15,0,19-May-2018,1,1,19,Sub15_Trial19_1,1,4,4,-41.965671,True,1.505
15,0,19-May-2018,1,1,19,Sub15_Trial19_1,1,5,5,6.193381,True,1.505
15,0,19-May-2018,1,1,19,Sub15_Trial19_1,1,6,6,-63.759776,True,1.505
15,0,19-May-2018,1,1,20,Sub15_Trial20_0,0,0,0,123.707234,False,0.598
15,0,19-May-2018,1,1,20,Sub15_Trial20_0,0,1,1,-109.701709,False,0.598
15,0,19-May-2018,1,1,20,Sub15_Trial20_0,0,2,2,-150.440984,False,0.598
15,0,19-May-2018,1,1,20,Sub15_Trial20_0,0,3,3,-111.510499,False,0.598
15,0,19-May-2018,1,1,20,Sub15_Trial20_0,0,4,4,14.335988,False,0.598
15,0,19-May-2018,1,1,20,Sub15_Trial20_0,0,5,5,-8.615921,False,0.598
15,0,19-May-2018,1,1,20,Sub15_Trial20_0,0,6,6,125.613837,False,0.598
15,0,19-May-2018,1,1,20,Sub15_Trial20_1,1,0,0,35.919203,True,0.598
15,0,19-May-2018,1,1,20,Sub15_Trial20_1,1,1,1,-112.517159,True,0.598
15,0,19-May-2018,1,1,20,Sub15_Trial20_1,1,2,2,-53.670218,True,0.598
15,0,19-May-2018,1,1,20,Sub15_Trial20_1,1,3,3,-25.099755,True,0.598
15,0,19-May-2018,1,1,20,Sub15_Trial20_1,1,4,4,-8.535847,True,0.598
15,0,19-May-2018,1,1,20,Sub15_Trial20_1,1,5,5,84.824516,True,0.598
15,0,19-May-2018,1,1,20,Sub15_Trial20_1,1,6,6,60.753724,True,0.598
15,0,19-May-2018,1,1,21,Sub15_Trial21_0,0,0,0,-102.55513,True,2.777
15,0,19-May-2018,1,1,21,Sub15_Trial21_0,0,1,1,-10.781359,True,2.777
15,0,19-May-2018,1,1,21,Sub15_Trial21_0,0,2,2,2.129591,True,2.777
15,0,19-May-2018,1,1,21,Sub15_Trial21_0,0,3,3,-23.029714,True,2.777
15,0,19-May-2018,1,1,21,Sub15_Trial21_0,0,4,4,63.698043,True,2.777
15,0,19-May-2018,1,1,21,Sub15_Trial21_0,0,5,5,-51.642669,True,2.777
15,0,19-May-2018,1,1,21,Sub15_Trial21_0,0,6,6,-132.51129,True,2.777
15,0,19-May-2018,1,1,21,Sub15_Trial21_1,1,0,0,110.487918,False,2.777
15,0,19-May-2018,1,1,21,Sub15_Trial21_1,1,1,1,49.488374,False,2.777
15,0,19-May-2018,1,1,21,Sub15_Trial21_1,1,2,2,-32.043102,False,2.777
15,0,19-May-2018,1,1,21,Sub15_Trial21_1,1,3,3,-2.229622,False,2.777
15,0,19-May-2018,1,1,21,Sub15_Trial21_1,1,4,4,84.805004,False,2.777
15,0,19-May-2018,1,1,21,Sub15_Trial21_1,1,5,5,14.184322,False,2.777
15,0,19-May-2018,1,1,21,Sub15_Trial21_1,1,6,6,-65.103637,False,2.777
15,0,19-May-2018,1,1,22,Sub15_Trial22_0,0,0,0,-64.969035,False,0.598
15,0,19-May-2018,1,1,22,Sub15_Trial22_0,0,1,1,50.720501,False,0.598
15,0,19-May-2018,1,1,22,Sub15_Trial22_0,0,2,2,-44.740333,False,0.598
15,0,19-May-2018,1,1,22,Sub15_Trial22_0,0,3,3,-48.434803,False,0.598
15,0,19-May-2018,1,1,22,Sub15_Trial22_0,0,4,4,20.482727,False,0.598
15,0,19-May-2018,1,1,22,Sub15_Trial22_0,0,5,5,132.267187,False,0.598
15,0,19-May-2018,1,1,22,Sub15_Trial22_0,0,6,6,-28.623908,False,0.598
15,0,19-May-2018,1,1,22,Sub15_Trial22_1,1,0,0,6.659435,True,0.598
15,0,19-May-2018,1,1,22,Sub15_Trial22_1,1,1,1,99.34448,True,0.598
15,0,19-May-2018,1,1,22,Sub15_Trial22_1,1,2,2,59.14835,True,0.598
15,0,19-May-2018,1,1,22,Sub15_Trial22_1,1,3,3,-4.924226,True,0.598
15,0,19-May-2018,1,1,22,Sub15_Trial22_1,1,4,4,-77.230919,True,0.598
15,0,19-May-2018,1,1,22,Sub15_Trial22_1,1,5,5,-39.593395,True,0.598
15,0,19-May-2018,1,1,22,Sub15_Trial22_1,1,6,6,114.572717,True,0.598
15,0,19-May-2018,1,1,23,Sub15_Trial23_0,0,0,0,40.33228,False,1.099
15,0,19-May-2018,1,1,23,Sub15_Trial23_0,0,1,1,31.139138,False,1.099
15,0,19-May-2018,1,1,23,Sub15_Trial23_0,0,2,2,-63.428311,False,1.099
15,0,19-May-2018,1,1,23,Sub15_Trial23_0,0,3,3,142.421921,False,1.099
15,0,19-May-2018,1,1,23,Sub15_Trial23_0,0,4,4,68.182002,False,1.099
15,0,19-May-2018,1,1,23,Sub15_Trial23_0,0,5,5,62.71537,False,1.099
15,0,19-May-2018,1,1,23,Sub15_Trial23_0,0,6,6,-4.144023,False,1.099
15,0,19-May-2018,1,1,23,Sub15_Trial23_1,1,0,0,81.264404,True,1.099
15,0,19-May-2018,1,1,23,Sub15_Trial23_1,1,1,1,-39.760268,True,1.099
15,0,19-May-2018,1,1,23,Sub15_Trial23_1,1,2,2,111.454068,True,1.099
15,0,19-May-2018,1,1,23,Sub15_Trial23_1,1,3,3,61.560806,True,1.099
15,0,19-May-2018,1,1,23,Sub15_Trial23_1,1,4,4,-0.416325,True,1.099
15,0,19-May-2018,1,1,23,Sub15_Trial23_1,1,5,5,-65.957582,True,1.099
15,0,19-May-2018,1,1,23,Sub15_Trial23_1,1,6,6,48.019956,True,1.099
15,0,19-May-2018,1,1,24,Sub15_Trial24_0,0,0,0,-58.726824,False,1.485
15,0,19-May-2018,1,1,24,Sub15_Trial24_0,0,1,1,75.387357,False,1.485
15,0,19-May-2018,1,1,24,Sub15_Trial24_0,0,2,2,40.760037,False,1.485
15,0,19-May-2018,1,1,24,Sub15_Trial24_0,0,3,3,-139.036072,False,1.485
15,0,19-May-2018,1,1,24,Sub15_Trial24_0,0,4,4,73.78154,False,1.485
15,0,19-May-2018,1,1,24,Sub15_Trial24_0,0,5,5,68.041595,False,1.485
15,0,19-May-2018,1,1,24,Sub15_Trial24_0,0,6,6,81.080861,False,1.485
15,0,19-May-2018,1,1,24,Sub15_Trial24_1,1,0,0,-6.55804,True,1.485
15,0,19-May-2018,1,1,24,Sub15_Trial24_1,1,1,1,-17.053986,True,1.485
15,0,19-May-2018,1,1,24,Sub15_Trial24_1,1,2,2,94.185914,True,1.485
15,0,19-May-2018,1,1,24,Sub15_Trial24_1,1,3,3,43.611386,True,1.485
15,0,19-May-2018,1,1,24,Sub15_Trial24_1,1,4,4,92.31596,True,1.485
15,0,19-May-2018,1,1,24,Sub15_Trial24_1,1,5,5,-16.608601,True,1.485
15,0,19-May-2018,1,1,24,Sub15_Trial24_1,1,6,6,30.997271,True,1.485
15,0,19-May-2018,1,1,25,Sub15_Trial25_0,0,0,0,109.332094,False,1.127
15,0,19-May-2018,1,1,25,Sub15_Trial25_0,0,1,1,136.113597,False,1.127
15,0,19-May-2018,1,1,25,Sub15_Trial25_0,0,2,2,58.187196,False,1.127
15,0,19-May-2018,1,1,25,Sub15_Trial25_0,0,3,3,-60.622401,False,1.127
15,0,19-May-2018,1,1,25,Sub15_Trial25_0,0,4,4,-47.153645,False,1.127
15,0,19-May-2018,1,1,25,Sub15_Trial25_0,0,5,5,-33.119774,False,1.127
15,0,19-May-2018,1,1,25,Sub15_Trial25_0,0,6,6,71.691384,False,1.127
15,0,19-May-2018,1,1,25,Sub15_Trial25_1,1,0,0,50.619176,True,1.127
15,0,19-May-2018,1,1,25,Sub15_Trial25_1,1,1,1,24.479433,True,1.127
15,0,19-May-2018,1,1,25,Sub15_Trial25_1,1,2,2,-3.145352,True,1.127
15,0,19-May-2018,1,1,25,Sub15_Trial25_1,1,3,3,27.443144,True,1.127
15,0,19-May-2018,1,1,25,Sub15_Trial25_1,1,4,4,2.228546,True,1.127
15,0,19-May-2018,1,1,25,Sub15_Trial25_1,1,5,5,-65.201125,True,1.127
15,0,19-May-2018,1,1,25,Sub15_Trial25_1,1,6,6,89.583029,True,1.127
15,0,19-May-2018,1,1,26,Sub15_Trial26_0,0,0,0,9.199735,False,0.876
15,0,19-May-2018,1,1,26,Sub15_Trial26_0,0,1,1,96.940538,False,0.876
15,0,19-May-2018,1,1,26,Sub15_Trial26_0,0,2,2,-0.695742,False,0.876
15,0,19-May-2018,1,1,26,Sub15_Trial26_0,0,3,3,-88.767537,False,0.876
15,0,19-May-2018,1,1,26,Sub15_Trial26_0,0,4,4,92.734617,False,0.876
15,0,19-May-2018,1,1,26,Sub15_Trial26_0,0,5,5,-79.524584,False,0.876
15,0,19-May-2018,1,1,26,Sub15_Trial26_0,0,6,6,47.525706,False,0.876
15,0,19-May-2018,1,1,26,Sub15_Trial26_1,1,0,0,-13.594953,True,0.876
15,0,19-May-2018,1,1,26,Sub15_Trial26_1,1,1,1,-83.878608,True,0.876
15,0,19-May-2018,1,1,26,Sub15_Trial26_1,1,2,2,32.842346,True,0.876
15,0,19-May-2018,1,1,26,Sub15_Trial26_1,1,3,3,138.675328,True,0.876
15,0,19-May-2018,1,1,26,Sub15_Trial26_1,1,4,4,10.439083,True,0.876
15,0,19-May-2018,1,1,26,Sub15_Trial26_1,1,5,5,-84.480493,True,0.876
15,0,19-May-2018,1,1,26,Sub15_Trial26_1,1,6,6,110.213147,True,0.876
15,0,19-May-2018,1,1,27,Sub15_Trial27_0,0,0,0,-28.116377,False,0.963
15,0,19-May-2018,1,1,27,Sub15_Trial27_0,0,1,1,47.077745,False,0.963
15,0,19-May-2018,1,1,27,Sub15_Trial27_0,0,2,2,10.229834,False,0.963
15,0,19-May-2018,1,1,27,Sub15_Trial27_0,0,3,3,-29.636808,False,0.963
15,0,19-May-2018,1,1,27,Sub15_Trial27_0,0,4,4,-141.71833,False,0.963
15,0,19-May-2018,1,1,27,Sub15_Trial27_0,0,5,5,46.434171,False,0.963
15,0,19-May-2018,1,1,27,Sub15_Trial27_0,0,6,6,-5.256934,False,0.963
15,0,19-May-2018,1,1,27,Sub15_Trial27_1,1,0,0,29.702837,True,0.963
15,0,19-May-2018,1,1,27,Sub15_Trial27_1,1,1,1,-19.983583,True,0.963
15,0,19-May-2018,1,1,27,Sub15_Trial27_1,1,2,2,-30.543053,True,0.963
15,0,19-May-2018,1,1,27,Sub15_Trial27_1,1,3,3,54.211794,True,0.963
15,0,19-May-2018,1,1,27,Sub15_Trial27_1,1,4,4,140.770454,True,0.963
15,0,19-May-2018,1,1,27,Sub15_Trial27_1,1,5,5,172.531944,True,0.963
15,0,19-May-2018,1,1,27,Sub15_Trial27_1,1,6,6,-155.878549,True,0.963
15,0,19-May-2018,1,1,28,Sub15_Trial28_0,0,0,0,-41.563269,False,0.761
15,0,19-May-2018,1,1,28,Sub15_Trial28_0,0,1,1,-73.122135,False,0.761
15,0,19-May-2018,1,1,28,Sub15_Trial28_0,0,2,2,-95.028122,False,0.761
15,0,19-May-2018,1,1,28,Sub15_Trial28_0,0,3,3,9.978338,False,0.761
15,0,19-May-2018,1,1,28,Sub15_Trial28_0,0,4,4,-95.879343,False,0.761
15,0,19-May-2018,1,1,28,Sub15_Trial28_0,0,5,5,51.142574,False,0.761
15,0,19-May-2018,1,1,28,Sub15_Trial28_0,0,6,6,-118.142544,False,0.761
15,0,19-May-2018,1,1,28,Sub15_Trial28_1,1,0,0,4.051209,True,0.761
15,0,19-May-2018,1,1,28,Sub15_Trial28_1,1,1,1,-93.653887,True,0.761
15,0,19-May-2018,1,1,28,Sub15_Trial28_1,1,2,2,78.901984,True,0.761
15,0,19-May-2018,1,1,28,Sub15_Trial28_1,1,3,3,37.658205,True,0.761
15,0,19-May-2018,1,1,28,Sub15_Trial28_1,1,4,4,4.722368,True,0.761
15,0,19-May-2018,1,1,28,Sub15_Trial28_1,1,5,5,149.215909,True,0.761
15,0,19-May-2018,1,1,28,Sub15_Trial28_1,1,6,6,-52.053912,True,0.761
15,0,19-May-2018,1,1,29,Sub15_Trial29_0,0,0,0,-121.912802,False,0.886
15,0,19-May-2018,1,1,29,Sub15_Trial29_0,0,1,1,-93.119852,False,0.886
15,0,19-May-2018,1,1,29,Sub15_Trial29_0,0,2,2,-106.945997,False,0.886
15,0,19-May-2018,1,1,29,Sub15_Trial29_0,0,3,3,-75.454416,False,0.886
15,0,19-May-2018,1,1,29,Sub15_Trial29_0,0,4,4,-64.284852,False,0.886
15,0,19-May-2018,1,1,29,Sub15_Trial29_0,0,5,5,154.985451,False,0.886
15,0,19-May-2018,1,1,29,Sub15_Trial29_0,0,6,6,-58.685261,False,0.886
15,0,19-May-2018,1,1,29,Sub15_Trial29_1,1,0,0,36.98858,True,0.886
15,0,19-May-2018,1,1,29,Sub15_Trial29_1,1,1,1,123.366949,True,0.886
15,0,19-May-2018,1,1,29,Sub15_Trial29_1,1,2,2,-29.152513,True,0.886
15,0,19-May-2018,1,1,29,Sub15_Trial29_1,1,3,3,99.006828,True,0.886
15,0,19-May-2018,1,1,29,Sub15_Trial29_1,1,4,4,10.826096,True,0.886
15,0,19-May-2018,1,1,29,Sub15_Trial29_1,1,5,5,-47.090815,True,0.886
15,0,19-May-2018,1,1,29,Sub15_Trial29_1,1,6,6,136.784488,True,0.886
15,0,19-May-2018,1,1,30,Sub15_Trial30_0,0,0,0,-189.420094,False,0.856
15,0,19-May-2018,1,1,30,Sub15_Trial30_0,0,1,1,-65.39136,False,0.856
15,0,19-May-2018,1,1,30,Sub15_Trial30_0,0,2,2,84.59242,False,0.856
15,0,19-May-2018,1,1,30,Sub15_Trial30_0,0,3,3,-14.524732,False,0.856
15,0,19-May-2018,1,1,30,Sub15_Trial30_0,0,4,4,-40.835129,False,0.856
15,0,19-May-2018,1,1,30,Sub15_Trial30_0,0,5,5,61.328568,False,0.856
15,0,19-May-2018,1,1,30,Sub15_Trial30_0,0,6,6,17.917689,False,0.856
15,0,19-May-2018,1,1,30,Sub15_Trial30_1,1,0,0,64.249254,True,0.856
15,0,19-May-2018,1,1,30,Sub15_Trial30_1,1,1,1,-161.087923,True,0.856
15,0,19-May-2018,1,1,30,Sub15_Trial30_1,1,2,2,36.65342,True,0.856
15,0,19-May-2018,1,1,30,Sub15_Trial30_1,1,3,3,-43.20541,True,0.856
15,0,19-May-2018,1,1,30,Sub15_Trial30_1,1,4,4,-6.135406,True,0.856
15,0,19-May-2018,1,1,30,Sub15_Trial30_1,1,5,5,152.887015,True,0.856
15,0,19-May-2018,1,1,30,Sub15_Trial30_1,1,6,6,16.438239,True,0.856
15,0,19-May-2018,1,1,31,Sub15_Trial31_0,0,0,0,46.113339,False,0.478
15,0,19-May-2018,1,1,31,Sub15_Trial31_0,0,1,1,-69.183245,False,0.478
15,0,19-May-2018,1,1,31,Sub15_Trial31_0,0,2,2,51.441514,False,0.478
15,0,19-May-2018,1,1,31,Sub15_Trial31_0,0,3,3,102.464418,False,0.478
15,0,19-May-2018,1,1,31,Sub15_Trial31_0,0,4,4,-76.722959,False,0.478
15,0,19-May-2018,1,1,31,Sub15_Trial31_0,0,5,5,-105.520583,False,0.478
15,0,19-May-2018,1,1,31,Sub15_Trial31_0,0,6,6,18.873503,False,0.478
15,0,19-May-2018,1,1,31,Sub15_Trial31_1,1,0,0,64.800137,True,0.478
15,0,19-May-2018,1,1,31,Sub15_Trial31_1,1,1,1,63.280726,True,0.478
15,0,19-May-2018,1,1,31,Sub15_Trial31_1,1,2,2,35.099551,True,0.478
15,0,19-May-2018,1,1,31,Sub15_Trial31_1,1,3,3,21.471802,True,0.478
15,0,19-May-2018,1,1,31,Sub15_Trial31_1,1,4,4,58.685223,True,0.478
15,0,19-May-2018,1,1,31,Sub15_Trial31_1,1,5,5,67.91467,True,0.478
15,0,19-May-2018,1,1,31,Sub15_Trial31_1,1,6,6,8.517047,True,0.478
15,0,19-May-2018,1,1,32,Sub15_Trial32_0,0,0,0,-92.93386,False,1.443
15,0,19-May-2018,1,1,32,Sub15_Trial32_0,0,1,1,-15.830797,False,1.443
15,0,19-May-2018,1,1,32,Sub15_Trial32_0,0,2,2,-83.0857,False,1.443
15,0,19-May-2018,1,1,32,Sub15_Trial32_0,0,3,3,44.715147,False,1.443
15,0,19-May-2018,1,1,32,Sub15_Trial32_0,0,4,4,109.087671,False,1.443
15,0,19-May-2018,1,1,32,Sub15_Trial32_0,0,5,5,12.37833,False,1.443
15,0,19-May-2018,1,1,32,Sub15_Trial32_0,0,6,6,-76.824316,False,1.443
15,0,19-May-2018,1,1,32,Sub15_Trial32_1,1,0,0,-14.665838,True,1.443
15,0,19-May-2018,1,1,32,Sub15_Trial32_1,1,1,1,-68.339433,True,1.443
15,0,19-May-2018,1,1,32,Sub15_Trial32_1,1,2,2,-21.643347,True,1.443
15,0,19-May-2018,1,1,32,Sub15_Trial32_1,1,3,3,-57.435302,True,1.443
15,0,19-May-2018,1,1,32,Sub15_Trial32_1,1,4,4,50.734651,True,1.443
15,0,19-May-2018,1,1,32,Sub15_Trial32_1,1,5,5,22.633374,True,1.443
15,0,19-May-2018,1,1,32,Sub15_Trial32_1,1,6,6,156.232895,True,1.443
15,0,19-May-2018,1,1,33,Sub15_Trial33_0,0,0,0,150.823665,False,0.827
15,0,19-May-2018,1,1,33,Sub15_Trial33_0,0,1,1,141.647628,False,0.827
15,0,19-May-2018,1,1,33,Sub15_Trial33_0,0,2,2,-73.804686,False,0.827
15,0,19-May-2018,1,1,33,Sub15_Trial33_0,0,3,3,-59.411691,False,0.827
15,0,19-May-2018,1,1,33,Sub15_Trial33_0,0,4,4,-78.835763,False,0.827
15,0,19-May-2018,1,1,33,Sub15_Trial33_0,0,5,5,-23.177392,False,0.827
15,0,19-May-2018,1,1,33,Sub15_Trial33_0,0,6,6,103.947795,False,0.827
15,0,19-May-2018,1,1,33,Sub15_Trial33_1,1,0,0,-20.304498,True,0.827
15,0,19-May-2018,1,1,33,Sub15_Trial33_1,1,1,1,-8.271447,True,0.827
15,0,19-May-2018,1,1,33,Sub15_Trial33_1,1,2,2,-73.290346,True,0.827
15,0,19-May-2018,1,1,33,Sub15_Trial33_1,1,3,3,-194.20332,True,0.827
15,0,19-May-2018,1,1,33,Sub15_Trial33_1,1,4,4,14.307995,True,0.827
15,0,19-May-2018,1,1,33,Sub15_Trial33_1,1,5,5,36.839724,True,0.827
15,0,19-May-2018,1,1,33,Sub15_Trial33_1,1,6,6,-112.858419,True,0.827
15,0,19-May-2018,1,1,34,Sub15_Trial34_0,0,0,0,34.890867,False,1.026
15,0,19-May-2018,1,1,34,Sub15_Trial34_0,0,1,1,-37.529756,False,1.026
15,0,19-May-2018,1,1,34,Sub15_Trial34_0,0,2,2,-33.67929,False,1.026
15,0,19-May-2018,1,1,34,Sub15_Trial34_0,0,3,3,35.019946,False,1.026
15,0,19-May-2018,1,1,34,Sub15_Trial34_0,0,4,4,58.142549,False,1.026
15,0,19-May-2018,1,1,34,Sub15_Trial34_0,0,5,5,-103.978898,False,1.026
15,0,19-May-2018,1,1,34,Sub15_Trial34_0,0,6,6,9.293158,False,1.026
15,0,19-May-2018,1,1,34,Sub15_Trial34_1,1,0,0,-176.165691,True,1.026
15,0,19-May-2018,1,1,34,Sub15_Trial34_1,1,1,1,-18.869375,True,1.026
15,0,19-May-2018,1,1,34,Sub15_Trial34_1,1,2,2,-123.911514,True,1.026
15,0,19-May-2018,1,1,34,Sub15_Trial34_1,1,3,3,0.914408,True,1.026
15,0,19-May-2018,1,1,34,Sub15_Trial34_1,1,4,4,69.575634,True,1.026
15,0,19-May-2018,1,1,34,Sub15_Trial34_1,1,5,5,-98.530386,True,1.026
15,0,19-May-2018,1,1,34,Sub15_Trial34_1,1,6,6,-0.030869,True,1.026
15,0,19-May-2018,1,1,35,Sub15_Trial35_0,0,0,0,62.222514,False,1.129
15,0,19-May-2018,1,1,35,Sub15_Trial35_0,0,1,1,-144.036446,False,1.129
15,0,19-May-2018,1,1,35,Sub15_Trial35_0,0,2,2,-11.688356,False,1.129
15,0,19-May-2018,1,1,35,Sub15_Trial35_0,0,3,3,-103.266707,False,1.129
15,0,19-May-2018,1,1,35,Sub15_Trial35_0,0,4,4,-15.864123,False,1.129
15,0,19-May-2018,1,1,35,Sub15_Trial35_0,0,5,5,40.268704,False,1.129
15,0,19-May-2018,1,1,35,Sub15_Trial35_0,0,6,6,34.877367,False,1.129
15,0,19-May-2018,1,1,35,Sub15_Trial35_1,1,0,0,-94.44493,True,1.129
15,0,19-May-2018,1,1,35,Sub15_Trial35_1,1,1,1,-5.036786,True,1.129
15,0,19-May-2018,1,1,35,Sub15_Trial35_1,1,2,2,-68.171317,True,1.129
15,0,19-May-2018,1,1,35,Sub15_Trial35_1,1,3,3,-13.495079,True,1.129
15,0,19-May-2018,1,1,35,Sub15_Trial35_1,1,4,4,74.849163,True,1.129
15,0,19-May-2018,1,1,35,Sub15_Trial35_1,1,5,5,-25.977473,True,1.129
15,0,19-May-2018,1,1,35,Sub15_Trial35_1,1,6,6,179.372989,True,1.129
15,0,19-May-2018,1,1,36,Sub15_Trial36_0,0,0,0,-12.494436,True,1.331
15,0,19-May-2018,1,1,36,Sub15_Trial36_0,0,1,1,-46.18962,True,1.331
15,0,19-May-2018,1,1,36,Sub15_Trial36_0,0,2,2,174.171279,True,1.331
15,0,19-May-2018,1,1,36,Sub15_Trial36_0,0,3,3,-16.485129,True,1.331
15,0,19-May-2018,1,1,36,Sub15_Trial36_0,0,4,4,27.442855,True,1.331
15,0,19-May-2018,1,1,36,Sub15_Trial36_0,0,5,5,-48.291281,True,1.331
15,0,19-May-2018,1,1,36,Sub15_Trial36_0,0,6,6,-4.141279,True,1.331
15,0,19-May-2018,1,1,36,Sub15_Trial36_1,1,0,0,17.334053,False,1.331
15,0,19-May-2018,1,1,36,Sub15_Trial36_1,1,1,1,-10.522493,False,1.331
15,0,19-May-2018,1,1,36,Sub15_Trial36_1,1,2,2,111.474643,False,1.331
15,0,19-May-2018,1,1,36,Sub15_Trial36_1,1,3,3,94.012071,False,1.331
15,0,19-May-2018,1,1,36,Sub15_Trial36_1,1,4,4,-47.790379,False,1.331
15,0,19-May-2018,1,1,36,Sub15_Trial36_1,1,5,5,-16.982411,False,1.331
15,0,19-May-2018,1,1,36,Sub15_Trial36_1,1,6,6,-104.702997,False,1.331
15,0,19-May-2018,1,1,37,Sub15_Trial37_0,0,0,0,-55.084561,False,0.552
15,0,19-May-2018,1,1,37,Sub15_Trial37_0,0,1,1,20.513908,False,0.552
15,0,19-May-2018,1,1,37,Sub15_Trial37_0,0,2,2,6.557727,False,0.552
15,0,19-May-2018,1,1,37,Sub15_Trial37_0,0,3,3,40.029321,False,0.552
15,0,19-May-2018,1,1,37,Sub15_Trial37_0,0,4,4,4.33309,False,0.552
15,0,19-May-2018,1,1,37,Sub15_Trial37_0,0,5,5,-22.642087,False,0.552
15,0,19-May-2018,1,1,37,Sub15_Trial37_0,0,6,6,35.100822,False,0.552
15,0,19-May-2018,1,1,37,Sub15_Trial37_1,1,0,0,73.613466,True,0.552
15,0,19-May-2018,1,1,37,Sub15_Trial37_1,1,1,1,80.677384,True,0.552
15,0,19-May-2018,1,1,37,Sub15_Trial37_1,1,2,2,11.11867,True,0.552
15,0,19-May-2018,1,1,37,Sub15_Trial37_1,1,3,3,23.926759,True,0.552
15,0,19-May-2018,1,1,37,Sub15_Trial37_1,1,4,4,-50.788666,True,0.552
15,0,19-May-2018,1,1,37,Sub15_Trial37_1,1,5,5,114.271514,True,0.552
15,0,19-May-2018,1,1,37,Sub15_Trial37_1,1,6,6,-32.969115,True,0.552
15,0,19-May-2018,1,1,38,Sub15_Trial38_0,0,0,0,4.831579,True,2.151
15,0,19-May-2018,1,1,38,Sub15_Trial38_0,0,1,1,76.98562,True,2.151
15,0,19-May-2018,1,1,38,Sub15_Trial38_0,0,2,2,-6.117007,True,2.151
15,0,19-May-2018,1,1,38,Sub15_Trial38_0,0,3,3,4.349534,True,2.151
15,0,19-May-2018,1,1,38,Sub15_Trial38_0,0,4,4,-29.423142,True,2.151
15,0,19-May-2018,1,1,38,Sub15_Trial38_0,0,5,5,149.154777,True,2.151
15,0,19-May-2018,1,1,38,Sub15_Trial38_0,0,6,6,-16.149244,True,2.151
15,0,19-May-2018,1,1,38,Sub15_Trial38_1,1,0,0,-25.638444,False,2.151
15,0,19-May-2018,1,1,38,Sub15_Trial38_1,1,1,1,-63.830383,False,2.151
15,0,19-May-2018,1,1,38,Sub15_Trial38_1,1,2,2,-18.92091,False,2.151
15,0,19-May-2018,1,1,38,Sub15_Trial38_1,1,3,3,-26.118953,False,2.151
15,0,19-May-2018,1,1,38,Sub15_Trial38_1,1,4,4,122.65334,False,2.151
15,0,19-May-2018,1,1,38,Sub15_Trial38_1,1,5,5,-11.877655,False,2.151
15,0,19-May-2018,1,1,38,Sub15_Trial38_1,1,6,6,-19.406959,False,2.151
15,0,19-May-2018,1,1,39,Sub15_Trial39_0,0,0,0,56.71599,True,1.558
15,0,19-May-2018,1,1,39,Sub15_Trial39_0,0,1,1,51.961446,True,1.558
15,0,19-May-2018,1,1,39,Sub15_Trial39_0,0,2,2,-38.003116,True,1.558
15,0,19-May-2018,1,1,39,Sub15_Trial39_0,0,3,3,-54.437343,True,1.558
15,0,19-May-2018,1,1,39,Sub15_Trial39_0,0,4,4,62.326747,True,1.558
15,0,19-May-2018,1,1,39,Sub15_Trial39_0,0,5,5,72.3754,True,1.558
15,0,19-May-2018,1,1,39,Sub15_Trial39_0,0,6,6,157.286743,True,1.558
15,0,19-May-2018,1,1,39,Sub15_Trial39_1,1,0,0,-62.879336,False,1.558
15,0,19-May-2018,1,1,39,Sub15_Trial39_1,1,1,1,-0.776916,False,1.558
15,0,19-May-2018,1,1,39,Sub15_Trial39_1,1,2,2,117.119295,False,1.558
15,0,19-May-2018,1,1,39,Sub15_Trial39_1,1,3,3,118.382765,False,1.558
15,0,19-May-2018,1,1,39,Sub15_Trial39_1,1,4,4,-54.563773,False,1.558
15,0,19-May-2018,1,1,39,Sub15_Trial39_1,1,5,5,-2.265632,False,1.558
15,0,19-May-2018,1,1,39,Sub15_Trial39_1,1,6,6,-117.545886,False,1.558
15,0,19-May-2018,1,1,40,Sub15_Trial40_0,0,0,0,-35.138075,True,0.901
15,0,19-May-2018,1,1,40,Sub15_Trial40_0,0,1,1,42.010878,True,0.901
15,0,19-May-2018,1,1,40,Sub15_Trial40_0,0,2,2,-13.768765,True,0.901
15,0,19-May-2018,1,1,40,Sub15_Trial40_0,0,3,3,10.630843,True,0.901
15,0,19-May-2018,1,1,40,Sub15_Trial40_0,0,4,4,36.309556,True,0.901
15,0,19-May-2018,1,1,40,Sub15_Trial40_0,0,5,5,-19.331758,True,0.901
15,0,19-May-2018,1,1,40,Sub15_Trial40_0,0,6,6,10.28372,True,0.901
15,0,19-May-2018,1,1,40,Sub15_Trial40_1,1,0,0,20.399657,False,0.901
15,0,19-May-2018,1,1,40,Sub15_Trial40_1,1,1,1,-105.352255,False,0.901
15,0,19-May-2018,1,1,40,Sub15_Trial40_1,1,2,2,-30.219273,False,0.901
15,0,19-May-2018,1,1,40,Sub15_Trial40_1,1,3,3,155.5064,False,0.901
15,0,19-May-2018,1,1,40,Sub15_Trial40_1,1,4,4,-95.084122,False,0.901
15,0,19-May-2018,1,1,40,Sub15_Trial40_1,1,5,5,65.84263,False,0.901
15,0,19-May-2018,1,1,40,Sub15_Trial40_1,1,6,6,106.997872,False,0.901
15,0,19-May-2018,1,1,41,Sub15_Trial41_0,0,0,0,17.078338,True,1.727
15,0,19-May-2018,1,1,41,Sub15_Trial41_0,0,1,1,-31.987716,True,1.727
15,0,19-May-2018,1,1,41,Sub15_Trial41_0,0,2,2,-45.282485,True,1.727
15,0,19-May-2018,1,1,41,Sub15_Trial41_0,0,3,3,-19.964305,True,1.727
15,0,19-May-2018,1,1,41,Sub15_Trial41_0,0,4,4,-134.028868,True,1.727
15,0,19-May-2018,1,1,41,Sub15_Trial41_0,0,5,5,135.637172,True,1.727
15,0,19-May-2018,1,1,41,Sub15_Trial41_0,0,6,6,77.216787,True,1.727
15,0,19-May-2018,1,1,41,Sub15_Trial41_1,1,0,0,-164.636838,False,1.727
15,0,19-May-2018,1,1,41,Sub15_Trial41_1,1,1,1,40.641305,False,1.727
15,0,19-May-2018,1,1,41,Sub15_Trial41_1,1,2,2,174.43156,False,1.727
15,0,19-May-2018,1,1,41,Sub15_Trial41_1,1,3,3,-18.428817,False,1.727
15,0,19-May-2018,1,1,41,Sub15_Trial41_1,1,4,4,-150.492,False,1.727
15,0,19-May-2018,1,1,41,Sub15_Trial41_1,1,5,5,45.12144,False,1.727
15,0,19-May-2018,1,1,41,Sub15_Trial41_1,1,6,6,7.377644,False,1.727
15,0,19-May-2018,1,1,42,Sub15_Trial42_0,0,0,0,4.208174,True,0.816
15,0,19-May-2018,1,1,42,Sub15_Trial42_0,0,1,1,-139.141784,True,0.816
15,0,19-May-2018,1,1,42,Sub15_Trial42_0,0,2,2,-186.358875,True,0.816
15,0,19-May-2018,1,1,42,Sub15_Trial42_0,0,3,3,92.019315,True,0.816
15,0,19-May-2018,1,1,42,Sub15_Trial42_0,0,4,4,79.841083,True,0.816
15,0,19-May-2018,1,1,42,Sub15_Trial42_0,0,5,5,-197.806046,True,0.816
15,0,19-May-2018,1,1,42,Sub15_Trial42_0,0,6,6,-9.829975,True,0.816
15,0,19-May-2018,1,1,42,Sub15_Trial42_1,1,0,0,21.534778,False,0.816
15,0,19-May-2018,1,1,42,Sub15_Trial42_1,1,1,1,60.554432,False,0.816
15,0,19-May-2018,1,1,42,Sub15_Trial42_1,1,2,2,10.052033,False,0.816
15,0,19-May-2018,1,1,42,Sub15_Trial42_1,1,3,3,58.237348,False,0.816
15,0,19-May-2018,1,1,42,Sub15_Trial42_1,1,4,4,37.711199,False,0.816
15,0,19-May-2018,1,1,42,Sub15_Trial42_1,1,5,5,31.891557,False,0.816
15,0,19-May-2018,1,1,42,Sub15_Trial42_1,1,6,6,-51.095848,False,0.816
15,0,19-May-2018,1,1,43,Sub15_Trial43_0,0,0,0,18.853337,False,1.151
15,0,19-May-2018,1,1,43,Sub15_Trial43_0,0,1,1,-157.65447,False,1.151
15,0,19-May-2018,1,1,43,Sub15_Trial43_0,0,2,2,-137.83419,False,1.151
15,0,19-May-2018,1,1,43,Sub15_Trial43_0,0,3,3,26.772234,False,1.151
15,0,19-May-2018,1,1,43,Sub15_Trial43_0,0,4,4,-25.337823,False,1.151
15,0,19-May-2018,1,1,43,Sub15_Trial43_0,0,5,5,155.688237,False,1.151
15,0,19-May-2018,1,1,43,Sub15_Trial43_0,0,6,6,-19.563895,False,1.151
15,0,19-May-2018,1,1,43,Sub15_Trial43_1,1,0,0,-53.11949,True,1.151
15,0,19-May-2018,1,1,43,Sub15_Trial43_1,1,1,1,-126.836384,True,1.151
15,0,19-May-2018,1,1,43,Sub15_Trial43_1,1,2,2,100.828323,True,1.151
15,0,19-May-2018,1,1,43,Sub15_Trial43_1,1,3,3,153.167281,True,1.151
15,0,19-May-2018,1,1,43,Sub15_Trial43_1,1,4,4,84.037981,True,1.151
15,0,19-May-2018,1,1,43,Sub15_Trial43_1,1,5,5,-2.447772,True,1.151
15,0,19-May-2018,1,1,43,Sub15_Trial43_1,1,6,6,150.644347,True,1.151
15,0,19-May-2018,1,1,44,Sub15_Trial44_0,0,0,0,24.280917,False,1.078
15,0,19-May-2018,1,1,44,Sub15_Trial44_0,0,1,1,-191.70144,False,1.078
15,0,19-May-2018,1,1,44,Sub15_Trial44_0,0,2,2,-41.041394,False,1.078
15,0,19-May-2018,1,1,44,Sub15_Trial44_0,0,3,3,153.910625,False,1.078
15,0,19-May-2018,1,1,44,Sub15_Trial44_0,0,4,4,192.933155,False,1.078
15,0,19-May-2018,1,1,44,Sub15_Trial44_0,0,5,5,129.587117,False,1.078
15,0,19-May-2018,1,1,44,Sub15_Trial44_0,0,6,6,-171.629152,False,1.078
15,0,19-May-2018,1,1,44,Sub15_Trial44_1,1,0,0,-137.026224,True,1.078
15,0,19-May-2018,1,1,44,Sub15_Trial44_1,1,1,1,-123.63849,True,1.078
15,0,19-May-2018,1,1,44,Sub15_Trial44_1,1,2,2,-41.768246,True,1.078
15,0,19-May-2018,1,1,44,Sub15_Trial44_1,1,3,3,-107.029758,True,1.078
15,0,19-May-2018,1,1,44,Sub15_Trial44_1,1,4,4,83.404294,True,1.078
15,0,19-May-2018,1,1,44,Sub15_Trial44_1,1,5,5,95.55559,True,1.078
15,0,19-May-2018,1,1,44,Sub15_Trial44_1,1,6,6,-64.337786,True,1.078
15,0,19-May-2018,1,1,45,Sub15_Trial45_0,0,0,0,5.093405,True,0.69
15,0,19-May-2018,1,1,45,Sub15_Trial45_0,0,1,1,-12.030211,True,0.69
15,0,19-May-2018,1,1,45,Sub15_Trial45_0,0,2,2,172.335138,True,0.69
15,0,19-May-2018,1,1,45,Sub15_Trial45_0,0,3,3,22.942538,True,0.69
15,0,19-May-2018,1,1,45,Sub15_Trial45_0,0,4,4,-15.517632,True,0.69
15,0,19-May-2018,1,1,45,Sub15_Trial45_0,0,5,5,-50.486964,True,0.69
15,0,19-May-2018,1,1,45,Sub15_Trial45_0,0,6,6,154.210017,True,0.69
15,0,19-May-2018,1,1,45,Sub15_Trial45_1,1,0,0,117.363269,False,0.69
15,0,19-May-2018,1,1,45,Sub15_Trial45_1,1,1,1,90.412784,False,0.69
15,0,19-May-2018,1,1,45,Sub15_Trial45_1,1,2,2,41.633309,False,0.69
15,0,19-May-2018,1,1,45,Sub15_Trial45_1,1,3,3,4.987858,False,0.69
15,0,19-May-2018,1,1,45,Sub15_Trial45_1,1,4,4,6.894179,False,0.69
15,0,19-May-2018,1,1,45,Sub15_Trial45_1,1,5,5,84.081526,False,0.69
15,0,19-May-2018,1,1,45,Sub15_Trial45_1,1,6,6,83.848641,False,0.69
15,0,19-May-2018,1,1,46,Sub15_Trial46_0,0,0,0,150.743351,False,1.905
15,0,19-May-2018,1,1,46,Sub15_Trial46_0,0,1,1,-9.617593,False,1.905
15,0,19-May-2018,1,1,46,Sub15_Trial46_0,0,2,2,-101.744012,False,1.905
15,0,19-May-2018,1,1,46,Sub15_Trial46_0,0,3,3,16.728171,False,1.905
15,0,19-May-2018,1,1,46,Sub15_Trial46_0,0,4,4,-21.015173,False,1.905
15,0,19-May-2018,1,1,46,Sub15_Trial46_0,0,5,5,-55.207013,False,1.905
15,0,19-May-2018,1,1,46,Sub15_Trial46_0,0,6,6,-107.607454,False,1.905
15,0,19-May-2018,1,1,46,Sub15_Trial46_1,1,0,0,182.04817,True,1.905
15,0,19-May-2018,1,1,46,Sub15_Trial46_1,1,1,1,-59.116268,True,1.905
15,0,19-May-2018,1,1,46,Sub15_Trial46_1,1,2,2,24.546906,True,1.905
15,0,19-May-2018,1,1,46,Sub15_Trial46_1,1,3,3,156.049465,True,1.905
15,0,19-May-2018,1,1,46,Sub15_Trial46_1,1,4,4,-31.735845,True,1.905
15,0,19-May-2018,1,1,46,Sub15_Trial46_1,1,5,5,-77.316015,True,1.905
15,0,19-May-2018,1,1,46,Sub15_Trial46_1,1,6,6,91.624678,True,1.905
15,0,19-May-2018,1,1,47,Sub15_Trial47_0,0,0,0,96.062005,True,1.938
15,0,19-May-2018,1,1,47,Sub15_Trial47_0,0,1,1,-13.042042,True,1.938
15,0,19-May-2018,1,1,47,Sub15_Trial47_0,0,2,2,69.801832,True,1.938
15,0,19-May-2018,1,1,47,Sub15_Trial47_0,0,3,3,-21.43904,True,1.938
15,0,19-May-2018,1,1,47,Sub15_Trial47_0,0,4,4,-107.872314,True,1.938
15,0,19-May-2018,1,1,47,Sub15_Trial47_0,0,5,5,53.301995,True,1.938
15,0,19-May-2018,1,1,47,Sub15_Trial47_0,0,6,6,-29.89165,True,1.938
15,0,19-May-2018,1,1,47,Sub15_Trial47_1,1,0,0,57.299332,False,1.938
15,0,19-May-2018,1,1,47,Sub15_Trial47_1,1,1,1,104.665755,False,1.938
15,0,19-May-2018,1,1,47,Sub15_Trial47_1,1,2,2,91.423497,False,1.938
15,0,19-May-2018,1,1,47,Sub15_Trial47_1,1,3,3,44.918279,False,1.938
15,0,19-May-2018,1,1,47,Sub15_Trial47_1,1,4,4,-18.266802,False,1.938
15,0,19-May-2018,1,1,47,Sub15_Trial47_1,1,5,5,-85.307466,False,1.938
15,0,19-May-2018,1,1,47,Sub15_Trial47_1,1,6,6,21.45408,False,1.938
15,0,19-May-2018,1,1,48,Sub15_Trial48_0,0,0,0,74.742357,True,2.381
15,0,19-May-2018,1,1,48,Sub15_Trial48_0,0,1,1,18.09802,True,2.381
15,0,19-May-2018,1,1,48,Sub15_Trial48_0,0,2,2,57.544959,True,2.381
15,0,19-May-2018,1,1,48,Sub15_Trial48_0,0,3,3,-70.37297,True,2.381
15,0,19-May-2018,1,1,48,Sub15_Trial48_0,0,4,4,13.988451,True,2.381
15,0,19-May-2018,1,1,48,Sub15_Trial48_0,0,5,5,12.751388,True,2.381
15,0,19-May-2018,1,1,48,Sub15_Trial48_0,0,6,6,-60.982833,True,2.381
15,0,19-May-2018,1,1,48,Sub15_Trial48_1,1,0,0,33.143448,False,2.381
15,0,19-May-2018,1,1,48,Sub15_Trial48_1,1,1,1,-28.465376,False,2.381
15,0,19-May-2018,1,1,48,Sub15_Trial48_1,1,2,2,63.740213,False,2.381
15,0,19-May-2018,1,1,48,Sub15_Trial48_1,1,3,3,-14.627789,False,2.381
15,0,19-May-2018,1,1,48,Sub15_Trial48_1,1,4,4,19.715663,False,2.381
15,0,19-May-2018,1,1,48,Sub15_Trial48_1,1,5,5,-33.518886,False,2.381
15,0,19-May-2018,1,1,48,Sub15_Trial48_1,1,6,6,64.694889,False,2.381
15,0,19-May-2018,1,1,49,Sub15_Trial49_0,0,0,0,-121.721244,False,4.056
15,0,19-May-2018,1,1,49,Sub15_Trial49_0,0,1,1,73.020463,False,4.056
15,0,19-May-2018,1,1,49,Sub15_Trial49_0,0,2,2,-26.233809,False,4.056
15,0,19-May-2018,1,1,49,Sub15_Trial49_0,0,3,3,-89.013939,False,4.056
15,0,19-May-2018,1,1,49,Sub15_Trial49_0,0,4,4,53.19502,False,4.056
15,0,19-May-2018,1,1,49,Sub15_Trial49_0,0,5,5,73.738442,False,4.056
15,0,19-May-2018,1,1,49,Sub15_Trial49_0,0,6,6,-100.199516,False,4.056
15,0,19-May-2018,1,1,49,Sub15_Trial49_1,1,0,0,16.498386,True,4.056
15,0,19-May-2018,1,1,49,Sub15_Trial49_1,1,1,1,-39.42081,True,4.056
15,0,19-May-2018,1,1,49,Sub15_Trial49_1,1,2,2,-134.494691,True,4.056
15,0,19-May-2018,1,1,49,Sub15_Trial49_1,1,3,3,94.904841,True,4.056
15,0,19-May-2018,1,1,49,Sub15_Trial49_1,1,4,4,72.220857,True,4.056
15,0,19-May-2018,1,1,49,Sub15_Trial49_1,1,5,5,-87.58033,True,4.056
15,0,19-May-2018,1,1,49,Sub15_Trial49_1,1,6,6,-0.693594,True,4.056
15,0,19-May-2018,1,1,50,Sub15_Trial50_0,0,0,0,17.493753,True,1.778
15,0,19-May-2018,1,1,50,Sub15_Trial50_0,0,1,1,34.830712,True,1.778
15,0,19-May-2018,1,1,50,Sub15_Trial50_0,0,2,2,-24.21201,True,1.778
15,0,19-May-2018,1,1,50,Sub15_Trial50_0,0,3,3,-64.229241,True,1.778
15,0,19-May-2018,1,1,50,Sub15_Trial50_0,0,4,4,-65.873619,True,1.778
15,0,19-May-2018,1,1,50,Sub15_Trial50_0,0,5,5,-106.362266,True,1.778
15,0,19-May-2018,1,1,50,Sub15_Trial50_0,0,6,6,-6.72973,True,1.778
15,0,19-May-2018,1,1,50,Sub15_Trial50_1,1,0,0,-73.063554,False,1.778
15,0,19-May-2018,1,1,50,Sub15_Trial50_1,1,1,1,-7.911806,False,1.778
15,0,19-May-2018,1,1,50,Sub15_Trial50_1,1,2,2,-29.399693,False,1.778
15,0,19-May-2018,1,1,50,Sub15_Trial50_1,1,3,3,116.47997,False,1.778
15,0,19-May-2018,1,1,50,Sub15_Trial50_1,1,4,4,-179.556919,False,1.778
15,0,19-May-2018,1,1,50,Sub15_Trial50_1,1,5,5,-74.966035,False,1.778
15,0,19-May-2018,1,1,50,Sub15_Trial50_1,1,6,6,-0.732102,False,1.778
15,0,19-May-2018,1,2,51,Sub15_Trial51_0,0,0,0,74.991387,False,1.476
15,0,19-May-2018,1,2,51,Sub15_Trial51_0,0,1,1,-10.978846,False,1.476
15,0,19-May-2018,1,2,51,Sub15_Trial51_0,0,2,2,-114.779403,False,1.476
15,0,19-May-2018,1,2,51,Sub15_Trial51_0,0,3,3,-95.169816,False,1.476
15,0,19-May-2018,1,2,51,Sub15_Trial51_0,0,4,4,-91.556124,False,1.476
15,0,19-May-2018,1,2,51,Sub15_Trial51_0,0,5,5,94.562855,False,1.476
15,0,19-May-2018,1,2,51,Sub15_Trial51_0,0,6,6,1.412098,False,1.476
15,0,19-May-2018,1,2,51,Sub15_Trial51_1,1,0,0,-60.353022,True,1.476
15,0,19-May-2018,1,2,51,Sub15_Trial51_1,1,1,1,-145.307882,True,1.476
15,0,19-May-2018,1,2,51,Sub15_Trial51_1,1,2,2,-12.957173,True,1.476
15,0,19-May-2018,1,2,51,Sub15_Trial51_1,1,3,3,-17.970717,True,1.476
15,0,19-May-2018,1,2,51,Sub15_Trial51_1,1,4,4,18.326368,True,1.476
15,0,19-May-2018,1,2,51,Sub15_Trial51_1,1,5,5,105.382395,True,1.476
15,0,19-May-2018,1,2,51,Sub15_Trial51_1,1,6,6,22.592343,True,1.476
15,0,19-May-2018,1,2,52,Sub15_Trial52_0,0,0,0,19.758223,True,1.991
15,0,19-May-2018,1,2,52,Sub15_Trial52_0,0,1,1,138.767452,True,1.991
15,0,19-May-2018,1,2,52,Sub15_Trial52_0,0,2,2,17.363258,True,1.991
15,0,19-May-2018,1,2,52,Sub15_Trial52_0,0,3,3,56.154964,True,1.991
15,0,19-May-2018,1,2,52,Sub15_Trial52_0,0,4,4,103.730873,True,1.991
15,0,19-May-2018,1,2,52,Sub15_Trial52_0,0,5,5,-24.633498,True,1.991
15,0,19-May-2018,1,2,52,Sub15_Trial52_0,0,6,6,2.533764,True,1.991
15,0,19-May-2018,1,2,52,Sub15_Trial52_1,1,0,0,95.641142,False,1.991
15,0,19-May-2018,1,2,52,Sub15_Trial52_1,1,1,1,-23.967405,False,1.991
15,0,19-May-2018,1,2,52,Sub15_Trial52_1,1,2,2,23.138736,False,1.991
15,0,19-May-2018,1,2,52,Sub15_Trial52_1,1,3,3,86.666976,False,1.991
15,0,19-May-2018,1,2,52,Sub15_Trial52_1,1,4,4,-74.652967,False,1.991
15,0,19-May-2018,1,2,52,Sub15_Trial52_1,1,5,5,-21.542663,False,1.991
15,0,19-May-2018,1,2,52,Sub15_Trial52_1,1,6,6,19.020798,False,1.991
15,0,19-May-2018,1,2,53,Sub15_Trial53_0,0,0,0,195.459586,False,1.06
15,0,19-May-2018,1,2,53,Sub15_Trial53_0,0,1,1,-60.347615,False,1.06
15,0,19-May-2018,1,2,53,Sub15_Trial53_0,0,2,2,-19.472119,False,1.06
15,0,19-May-2018,1,2,53,Sub15_Trial53_0,0,3,3,69.0931,False,1.06
15,0,19-May-2018,1,2,53,Sub15_Trial53_0,0,4,4,-26.695447,False,1.06
15,0,19-May-2018,1,2,53,Sub15_Trial53_0,0,5,5,45.201817,False,1.06
15,0,19-May-2018,1,2,53,Sub15_Trial53_0,0,6,6,25.369026,False,1.06
15,0,19-May-2018,1,2,53,Sub15_Trial53_1,1,0,0,125.792765,True,1.06
15,0,19-May-2018,1,2,53,Sub15_Trial53_1,1,1,1,-52.607368,True,1.06
15,0,19-May-2018,1,2,53,Sub15_Trial53_1,1,2,2,-139.581465,True,1.06
15,0,19-May-2018,1,2,53,Sub15_Trial53_1,1,3,3,-82.512876,True,1.06
15,0,19-May-2018,1,2,53,Sub15_Trial53_1,1,4,4,-79.044475,True,1.06
15,0,19-May-2018,1,2,53,Sub15_Trial53_1,1,5,5,-79.821031,True,1.06
15,0,19-May-2018,1,2,53,Sub15_Trial53_1,1,6,6,-31.244517,True,1.06
15,0,19-May-2018,1,2,54,Sub15_Trial54_0,0,0,0,105.947429,False,1.586
15,0,19-May-2018,1,2,54,Sub15_Trial54_0,0,1,1,109.057202,False,1.586
15,0,19-May-2018,1,2,54,Sub15_Trial54_0,0,2,2,-19.067647,False,1.586
15,0,19-May-2018,1,2,54,Sub15_Trial54_0,0,3,3,157.669372,False,1.586
15,0,19-May-2018,1,2,54,Sub15_Trial54_0,0,4,4,146.348568,False,1.586
15,0,19-May-2018,1,2,54,Sub15_Trial54_0,0,5,5,75.161576,False,1.586
15,0,19-May-2018,1,2,54,Sub15_Trial54_0,0,6,6,18.130454,False,1.586
15,0,19-May-2018,1,2,54,Sub15_Trial54_1,1,0,0,40.519585,True,1.586
15,0,19-May-2018,1,2,54,Sub15_Trial54_1,1,1,1,197.504112,True,1.586
15,0,19-May-2018,1,2,54,Sub15_Trial54_1,1,2,2,114.751534,True,1.586
15,0,19-May-2018,1,2,54,Sub15_Trial54_1,1,3,3,35.148168,True,1.586
15,0,19-May-2018,1,2,54,Sub15_Trial54_1,1,4,4,192.573236,True,1.586
15,0,19-May-2018,1,2,54,Sub15_Trial54_1,1,5,5,27.252131,True,1.586
15,0,19-May-2018,1,2,54,Sub15_Trial54_1,1,6,6,-29.090415,True,1.586
15,0,19-May-2018,1,2,55,Sub15_Trial55_0,0,0,0,13.221575,True,2.658
15,0,19-May-2018,1,2,55,Sub15_Trial55_0,0,1,1,-80.474835,True,2.658
15,0,19-May-2018,1,2,55,Sub15_Trial55_0,0,2,2,-115.832665,True,2.658
15,0,19-May-2018,1,2,55,Sub15_Trial55_0,0,3,3,-51.025009,True,2.658
15,0,19-May-2018,1,2,55,Sub15_Trial55_0,0,4,4,24.615478,True,2.658
15,0,19-May-2018,1,2,55,Sub15_Trial55_0,0,5,5,-30.286008,True,2.658
15,0,19-May-2018,1,2,55,Sub15_Trial55_0,0,6,6,-165.45198,True,2.658
15,0,19-May-2018,1,2,55,Sub15_Trial55_1,1,0,0,37.70014,False,2.658
15,0,19-May-2018,1,2,55,Sub15_Trial55_1,1,1,1,-2.320435,False,2.658
15,0,19-May-2018,1,2,55,Sub15_Trial55_1,1,2,2,42.065692,False,2.658
15,0,19-May-2018,1,2,55,Sub15_Trial55_1,1,3,3,51.489707,False,2.658
15,0,19-May-2018,1,2,55,Sub15_Trial55_1,1,4,4,-52.908832,False,2.658
15,0,19-May-2018,1,2,55,Sub15_Trial55_1,1,5,5,-35.243677,False,2.658
15,0,19-May-2018,1,2,55,Sub15_Trial55_1,1,6,6,-151.775902,False,2.658
15,0,19-May-2018,1,2,56,Sub15_Trial56_0,0,0,0,148.10181,True,3.848
15,0,19-May-2018,1,2,56,Sub15_Trial56_0,0,1,1,-148.215654,True,3.848
15,0,19-May-2018,1,2,56,Sub15_Trial56_0,0,2,2,-21.291662,True,3.848
15,0,19-May-2018,1,2,56,Sub15_Trial56_0,0,3,3,-78.265843,True,3.848
15,0,19-May-2018,1,2,56,Sub15_Trial56_0,0,4,4,24.562812,True,3.848
15,0,19-May-2018,1,2,56,Sub15_Trial56_0,0,5,5,90.028145,True,3.848
15,0,19-May-2018,1,2,56,Sub15_Trial56_0,0,6,6,-33.474,True,3.848
15,0,19-May-2018,1,2,56,Sub15_Trial56_1,1,0,0,-168.867204,False,3.848
15,0,19-May-2018,1,2,56,Sub15_Trial56_1,1,1,1,49.41052,False,3.848
15,0,19-May-2018,1,2,56,Sub15_Trial56_1,1,2,2,54.382975,False,3.848
15,0,19-May-2018,1,2,56,Sub15_Trial56_1,1,3,3,-33.357398,False,3.848
15,0,19-May-2018,1,2,56,Sub15_Trial56_1,1,4,4,78.563948,False,3.848
15,0,19-May-2018,1,2,56,Sub15_Trial56_1,1,5,5,17.819278,False,3.848
15,0,19-May-2018,1,2,56,Sub15_Trial56_1,1,6,6,102.499081,False,3.848
15,0,19-May-2018,1,2,57,Sub15_Trial57_0,0,0,0,2.155723,True,1.806
15,0,19-May-2018,1,2,57,Sub15_Trial57_0,0,1,1,68.963267,True,1.806
15,0,19-May-2018,1,2,57,Sub15_Trial57_0,0,2,2,109.546532,True,1.806
15,0,19-May-2018,1,2,57,Sub15_Trial57_0,0,3,3,73.657351,True,1.806
15,0,19-May-2018,1,2,57,Sub15_Trial57_0,0,4,4,7.136922,True,1.806
15,0,19-May-2018,1,2,57,Sub15_Trial57_0,0,5,5,-104.340658,True,1.806
15,0,19-May-2018,1,2,57,Sub15_Trial57_0,0,6,6,43.420009,True,1.806
15,0,19-May-2018,1,2,57,Sub15_Trial57_1,1,0,0,-27.805393,False,1.806
15,0,19-May-2018,1,2,57,Sub15_Trial57_1,1,1,1,-121.560032,False,1.806
15,0,19-May-2018,1,2,57,Sub15_Trial57_1,1,2,2,-41.653702,False,1.806
15,0,19-May-2018,1,2,57,Sub15_Trial57_1,1,3,3,42.191749,False,1.806
15,0,19-May-2018,1,2,57,Sub15_Trial57_1,1,4,4,-71.877569,False,1.806
15,0,19-May-2018,1,2,57,Sub15_Trial57_1,1,5,5,-176.235596,False,1.806
15,0,19-May-2018,1,2,57,Sub15_Trial57_1,1,6,6,42.664302,False,1.806
15,0,19-May-2018,1,2,58,Sub15_Trial58_0,0,0,0,-158.642135,True,1.715
15,0,19-May-2018,1,2,58,Sub15_Trial58_0,0,1,1,166.127636,True,1.715
15,0,19-May-2018,1,2,58,Sub15_Trial58_0,0,2,2,85.313429,True,1.715
15,0,19-May-2018,1,2,58,Sub15_Trial58_0,0,3,3,-21.178919,True,1.715
15,0,19-May-2018,1,2,58,Sub15_Trial58_0,0,4,4,173.485227,True,1.715
15,0,19-May-2018,1,2,58,Sub15_Trial58_0,0,5,5,13.681521,True,1.715
15,0,19-May-2018,1,2,58,Sub15_Trial58_0,0,6,6,-2.611655,True,1.715
15,0,19-May-2018,1,2,58,Sub15_Trial58_1,1,0,0,-107.380748,False,1.715
15,0,19-May-2018,1,2,58,Sub15_Trial58_1,1,1,1,-34.291186,False,1.715
15,0,19-May-2018,1,2,58,Sub15_Trial58_1,1,2,2,91.642146,False,1.715
15,0,19-May-2018,1,2,58,Sub15_Trial58_1,1,3,3,174.330113,False,1.715
15,0,19-May-2018,1,2,58,Sub15_Trial58_1,1,4,4,-10.534278,False,1.715
15,0,19-May-2018,1,2,58,Sub15_Trial58_1,1,5,5,-42.571045,False,1.715
15,0,19-May-2018,1,2,58,Sub15_Trial58_1,1,6,6,-151.883492,False,1.715
15,0,19-May-2018,1,2,59,Sub15_Trial59_0,0,0,0,-183.596197,True,1.331
15,0,19-May-2018,1,2,59,Sub15_Trial59_0,0,1,1,78.785949,True,1.331
15,0,19-May-2018,1,2,59,Sub15_Trial59_0,0,2,2,53.723693,True,1.331
15,0,19-May-2018,1,2,59,Sub15_Trial59_0,0,3,3,-174.600496,True,1.331
15,0,19-May-2018,1,2,59,Sub15_Trial59_0,0,4,4,-49.407264,True,1.331
15,0,19-May-2018,1,2,59,Sub15_Trial59_0,0,5,5,15.438491,True,1.331
15,0,19-May-2018,1,2,59,Sub15_Trial59_0,0,6,6,34.125159,True,1.331
15,0,19-May-2018,1,2,59,Sub15_Trial59_1,1,0,0,-164.95324,False,1.331
15,0,19-May-2018,1,2,59,Sub15_Trial59_1,1,1,1,-51.875911,False,1.331
15,0,19-May-2018,1,2,59,Sub15_Trial59_1,1,2,2,-155.972255,False,1.331
15,0,19-May-2018,1,2,59,Sub15_Trial59_1,1,3,3,-28.903137,False,1.331
15,0,19-May-2018,1,2,59,Sub15_Trial59_1,1,4,4,26.59398,False,1.331
15,0,19-May-2018,1,2,59,Sub15_Trial59_1,1,5,5,-61.033122,False,1.331
15,0,19-May-2018,1,2,59,Sub15_Trial59_1,1,6,6,-70.284864,False,1.331
15,0,19-May-2018,1,2,60,Sub15_Trial60_0,0,0,0,-15.871714,True,2.197
15,0,19-May-2018,1,2,60,Sub15_Trial60_0,0,1,1,151.196297,True,2.197
15,0,19-May-2018,1,2,60,Sub15_Trial60_0,0,2,2,166.026607,True,2.197
15,0,19-May-2018,1,2,60,Sub15_Trial60_0,0,3,3,63.673163,True,2.197
15,0,19-May-2018,1,2,60,Sub15_Trial60_0,0,4,4,-115.962374,True,2.197
15,0,19-May-2018,1,2,60,Sub15_Trial60_0,0,5,5,-60.647338,True,2.197
15,0,19-May-2018,1,2,60,Sub15_Trial60_0,0,6,6,10.497181,True,2.197
15,0,19-May-2018,1,2,60,Sub15_Trial60_1,1,0,0,-51.085375,False,2.197
15,0,19-May-2018,1,2,60,Sub15_Trial60_1,1,1,1,-64.081023,False,2.197
15,0,19-May-2018,1,2,60,Sub15_Trial60_1,1,2,2,-9.994121,False,2.197
15,0,19-May-2018,1,2,60,Sub15_Trial60_1,1,3,3,62.990345,False,2.197
15,0,19-May-2018,1,2,60,Sub15_Trial60_1,1,4,4,106.279827,False,2.197
15,0,19-May-2018,1,2,60,Sub15_Trial60_1,1,5,5,-57.16751,False,2.197
15,0,19-May-2018,1,2,60,Sub15_Trial60_1,1,6,6,76.845334,False,2.197
15,0,19-May-2018,1,2,61,Sub15_Trial61_0,0,0,0,-47.189411,False,1.536
15,0,19-May-2018,1,2,61,Sub15_Trial61_0,0,1,1,-138.453169,False,1.536
15,0,19-May-2018,1,2,61,Sub15_Trial61_0,0,2,2,97.754015,False,1.536
15,0,19-May-2018,1,2,61,Sub15_Trial61_0,0,3,3,114.860473,False,1.536
15,0,19-May-2018,1,2,61,Sub15_Trial61_0,0,4,4,7.426892,False,1.536
15,0,19-May-2018,1,2,61,Sub15_Trial61_0,0,5,5,-141.101674,False,1.536
15,0,19-May-2018,1,2,61,Sub15_Trial61_0,0,6,6,-12.424935,False,1.536
15,0,19-May-2018,1,2,61,Sub15_Trial61_1,1,0,0,-32.342564,True,1.536
15,0,19-May-2018,1,2,61,Sub15_Trial61_1,1,1,1,77.270635,True,1.536
15,0,19-May-2018,1,2,61,Sub15_Trial61_1,1,2,2,160.910035,True,1.536
15,0,19-May-2018,1,2,61,Sub15_Trial61_1,1,3,3,-46.995695,True,1.536
15,0,19-May-2018,1,2,61,Sub15_Trial61_1,1,4,4,-104.422497,True,1.536
15,0,19-May-2018,1,2,61,Sub15_Trial61_1,1,5,5,-191.990557,True,1.536
15,0,19-May-2018,1,2,61,Sub15_Trial61_1,1,6,6,-101.270978,True,1.536
15,0,19-May-2018,1,2,62,Sub15_Trial62_0,0,0,0,-197.378496,True,2.039
15,0,19-May-2018,1,2,62,Sub15_Trial62_0,0,1,1,-63.969026,True,2.039
15,0,19-May-2018,1,2,62,Sub15_Trial62_0,0,2,2,17.672508,True,2.039
15,0,19-May-2018,1,2,62,Sub15_Trial62_0,0,3,3,-122.14707,True,2.039
15,0,19-May-2018,1,2,62,Sub15_Trial62_0,0,4,4,9.909155,True,2.039
15,0,19-May-2018,1,2,62,Sub15_Trial62_0,0,5,5,68.907566,True,2.039
15,0,19-May-2018,1,2,62,Sub15_Trial62_0,0,6,6,-16.427111,True,2.039
15,0,19-May-2018,1,2,62,Sub15_Trial62_1,1,0,0,118.33978,False,2.039
15,0,19-May-2018,1,2,62,Sub15_Trial62_1,1,1,1,-15.953911,False,2.039
15,0,19-May-2018,1,2,62,Sub15_Trial62_1,1,2,2,-82.531933,False,2.039
15,0,19-May-2018,1,2,62,Sub15_Trial62_1,1,3,3,12.521081,False,2.039
15,0,19-May-2018,1,2,62,Sub15_Trial62_1,1,4,4,-52.632349,False,2.039
15,0,19-May-2018,1,2,62,Sub15_Trial62_1,1,5,5,-66.042217,False,2.039
15,0,19-May-2018,1,2,62,Sub15_Trial62_1,1,6,6,2.669768,False,2.039
15,0,19-May-2018,1,2,63,Sub15_Trial63_0,0,0,0,22.642267,False,1.517
15,0,19-May-2018,1,2,63,Sub15_Trial63_0,0,1,1,40.807314,False,1.517
15,0,19-May-2018,1,2,63,Sub15_Trial63_0,0,2,2,3.307591,False,1.517
15,0,19-May-2018,1,2,63,Sub15_Trial63_0,0,3,3,55.478928,False,1.517
15,0,19-May-2018,1,2,63,Sub15_Trial63_0,0,4,4,-140.275899,False,1.517
15,0,19-May-2018,1,2,63,Sub15_Trial63_0,0,5,5,-24.476661,False,1.517
15,0,19-May-2018,1,2,63,Sub15_Trial63_0,0,6,6,128.505109,False,1.517
15,0,19-May-2018,1,2,63,Sub15_Trial63_1,1,0,0,54.096732,True,1.517
15,0,19-May-2018,1,2,63,Sub15_Trial63_1,1,1,1,92.01272,True,1.517
15,0,19-May-2018,1,2,63,Sub15_Trial63_1,1,2,2,88.264608,True,1.517
15,0,19-May-2018,1,2,63,Sub15_Trial63_1,1,3,3,42.184949,True,1.517
15,0,19-May-2018,1,2,63,Sub15_Trial63_1,1,4,4,12.853514,True,1.517
15,0,19-May-2018,1,2,63,Sub15_Trial63_1,1,5,5,28.587029,True,1.517
15,0,19-May-2018,1,2,63,Sub15_Trial63_1,1,6,6,27.274359,True,1.517
15,0,19-May-2018,1,2,64,Sub15_Trial64_0,0,0,0,58.305888,True,1.461
15,0,19-May-2018,1,2,64,Sub15_Trial64_0,0,1,1,-2.32667,True,1.461
15,0,19-May-2018,1,2,64,Sub15_Trial64_0,0,2,2,25.84434,True,1.461
15,0,19-May-2018,1,2,64,Sub15_Trial64_0,0,3,3,-145.387474,True,1.461
15,0,19-May-2018,1,2,64,Sub15_Trial64_0,0,4,4,-27.403523,True,1.461
15,0,19-May-2018,1,2,64,Sub15_Trial64_0,0,5,5,29.759192,True,1.461
15,0,19-May-2018,1,2,64,Sub15_Trial64_0,0,6,6,-39.340611,True,1.461
15,0,19-May-2018,1,2,64,Sub15_Trial64_1,1,0,0,-43.031656,False,1.461
15,0,19-May-2018,1,2,64,Sub15_Trial64_1,1,1,1,54.59706,False,1.461
15,0,19-May-2018,1,2,64,Sub15_Trial64_1,1,2,2,46.004898,False,1.461
15,0,19-May-2018,1,2,64,Sub15_Trial64_1,1,3,3,15.412049,False,1.461
15,0,19-May-2018,1,2,64,Sub15_Trial64_1,1,4,4,-62.316518,False,1.461
15,0,19-May-2018,1,2,64,Sub15_Trial64_1,1,5,5,-189.42841,False,1.461
15,0,19-May-2018,1,2,64,Sub15_Trial64_1,1,6,6,54.480831,False,1.461
15,0,19-May-2018,1,2,65,Sub15_Trial65_0,0,0,0,50.077328,False,2.145
15,0,19-May-2018,1,2,65,Sub15_Trial65_0,0,1,1,-5.294556,False,2.145
15,0,19-May-2018,1,2,65,Sub15_Trial65_0,0,2,2,5.553283,False,2.145
15,0,19-May-2018,1,2,65,Sub15_Trial65_0,0,3,3,-162.240273,False,2.145
15,0,19-May-2018,1,2,65,Sub15_Trial65_0,0,4,4,49.956062,False,2.145
15,0,19-May-2018,1,2,65,Sub15_Trial65_0,0,5,5,-93.353293,False,2.145
15,0,19-May-2018,1,2,65,Sub15_Trial65_0,0,6,6,-14.173002,False,2.145
15,0,19-May-2018,1,2,65,Sub15_Trial65_1,1,0,0,33.987116,True,2.145
15,0,19-May-2018,1,2,65,Sub15_Trial65_1,1,1,1,45.696101,True,2.145
15,0,19-May-2018,1,2,65,Sub15_Trial65_1,1,2,2,174.30987,True,2.145
15,0,19-May-2018,1,2,65,Sub15_Trial65_1,1,3,3,9.247443,True,2.145
15,0,19-May-2018,1,2,65,Sub15_Trial65_1,1,4,4,15.880747,True,2.145
15,0,19-May-2018,1,2,65,Sub15_Trial65_1,1,5,5,37.802695,True,2.145
15,0,19-May-2018,1,2,65,Sub15_Trial65_1,1,6,6,15.375132,True,2.145
15,0,19-May-2018,1,2,66,Sub15_Trial66_0,0,0,0,29.447812,False,0.829
15,0,19-May-2018,1,2,66,Sub15_Trial66_0,0,1,1,135.109816,False,0.829
15,0,19-May-2018,1,2,66,Sub15_Trial66_0,0,2,2,-27.222196,False,0.829
15,0,19-May-2018,1,2,66,Sub15_Trial66_0,0,3,3,-41.743922,False,0.829
15,0,19-May-2018,1,2,66,Sub15_Trial66_0,0,4,4,-33.86699,False,0.829
15,0,19-May-2018,1,2,66,Sub15_Trial66_0,0,5,5,-17.077025,False,0.829
15,0,19-May-2018,1,2,66,Sub15_Trial66_0,0,6,6,105.039317,False,0.829
15,0,19-May-2018,1,2,66,Sub15_Trial66_1,1,0,0,123.541017,True,0.829
15,0,19-May-2018,1,2,66,Sub15_Trial66_1,1,1,1,38.767555,True,0.829
15,0,19-May-2018,1,2,66,Sub15_Trial66_1,1,2,2,8.261824,True,0.829
15,0,19-May-2018,1,2,66,Sub15_Trial66_1,1,3,3,-183.288929,True,0.829
15,0,19-May-2018,1,2,66,Sub15_Trial66_1,1,4,4,14.815086,True,0.829
15,0,19-May-2018,1,2,66,Sub15_Trial66_1,1,5,5,14.715802,True,0.829
15,0,19-May-2018,1,2,66,Sub15_Trial66_1,1,6,6,30.207551,True,0.829
15,0,19-May-2018,1,2,67,Sub15_Trial67_0,0,0,0,172.839219,True,2.141
15,0,19-May-2018,1,2,67,Sub15_Trial67_0,0,1,1,76.051552,True,2.141
15,0,19-May-2018,1,2,67,Sub15_Trial67_0,0,2,2,-75.737232,True,2.141
15,0,19-May-2018,1,2,67,Sub15_Trial67_0,0,3,3,-33.468948,True,2.141
15,0,19-May-2018,1,2,67,Sub15_Trial67_0,0,4,4,-88.837306,True,2.141
15,0,19-May-2018,1,2,67,Sub15_Trial67_0,0,5,5,162.137856,True,2.141
15,0,19-May-2018,1,2,67,Sub15_Trial67_0,0,6,6,0.033574,True,2.141
15,0,19-May-2018,1,2,67,Sub15_Trial67_1,1,0,0,-20.761796,False,2.141
15,0,19-May-2018,1,2,67,Sub15_Trial67_1,1,1,1,-117.572041,False,2.141
15,0,19-May-2018,1,2,67,Sub15_Trial67_1,1,2,2,57.333836,False,2.141
15,0,19-May-2018,1,2,67,Sub15_Trial67_1,1,3,3,-43.068645,False,2.141
15,0,19-May-2018,1,2,67,Sub15_Trial67_1,1,4,4,2.183953,False,2.141
15,0,19-May-2018,1,2,67,Sub15_Trial67_1,1,5,5,40.729954,False,2.141
15,0,19-May-2018,1,2,67,Sub15_Trial67_1,1,6,6,-22.618425,False,2.141
15,0,19-May-2018,1,2,68,Sub15_Trial68_0,0,0,0,72.472753,False,0.94
15,0,19-May-2018,1,2,68,Sub15_Trial68_0,0,1,1,-137.932602,False,0.94
15,0,19-May-2018,1,2,68,Sub15_Trial68_0,0,2,2,10.309265,False,0.94
15,0,19-May-2018,1,2,68,Sub15_Trial68_0,0,3,3,89.239672,False,0.94
15,0,19-May-2018,1,2,68,Sub15_Trial68_0,0,4,4,-73.904724,False,0.94
15,0,19-May-2018,1,2,68,Sub15_Trial68_0,0,5,5,-161.010629,False,0.94
15,0,19-May-2018,1,2,68,Sub15_Trial68_0,0,6,6,27.573776,False,0.94
15,0,19-May-2018,1,2,68,Sub15_Trial68_1,1,0,0,23.105779,True,0.94
15,0,19-May-2018,1,2,68,Sub15_Trial68_1,1,1,1,100.469216,True,0.94
15,0,19-May-2018,1,2,68,Sub15_Trial68_1,1,2,2,-156.555141,True,0.94
15,0,19-May-2018,1,2,68,Sub15_Trial68_1,1,3,3,24.636965,True,0.94
15,0,19-May-2018,1,2,68,Sub15_Trial68_1,1,4,4,92.69893,True,0.94
15,0,19-May-2018,1,2,68,Sub15_Trial68_1,1,5,5,49.669836,True,0.94
15,0,19-May-2018,1,2,68,Sub15_Trial68_1,1,6,6,69.244816,True,0.94
15,0,19-May-2018,1,2,69,Sub15_Trial69_0,0,0,0,-2.27067,False,2.085
15,0,19-May-2018,1,2,69,Sub15_Trial69_0,0,1,1,1.548309,False,2.085
15,0,19-May-2018,1,2,69,Sub15_Trial69_0,0,2,2,-122.57709,False,2.085
15,0,19-May-2018,1,2,69,Sub15_Trial69_0,0,3,3,-128.097671,False,2.085
15,0,19-May-2018,1,2,69,Sub15_Trial69_0,0,4,4,-74.330134,False,2.085
15,0,19-May-2018,1,2,69,Sub15_Trial69_0,0,5,5,-8.476203,False,2.085
15,0,19-May-2018,1,2,69,Sub15_Trial69_0,0,6,6,164.091976,False,2.085
15,0,19-May-2018,1,2,69,Sub15_Trial69_1,1,0,0,135.857533,True,2.085
15,0,19-May-2018,1,2,69,Sub15_Trial69_1,1,1,1,-2.031546,True,2.085
15,0,19-May-2018,1,2,69,Sub15_Trial69_1,1,2,2,1.659192,True,2.085
15,0,19-May-2018,1,2,69,Sub15_Trial69_1,1,3,3,-86.789941,True,2.085
15,0,19-May-2018,1,2,69,Sub15_Trial69_1,1,4,4,-77.306707,True,2.085
15,0,19-May-2018,1,2,69,Sub15_Trial69_1,1,5,5,-29.582582,True,2.085
15,0,19-May-2018,1,2,69,Sub15_Trial69_1,1,6,6,-30.880854,True,2.085
15,0,19-May-2018,1,2,70,Sub15_Trial70_0,0,0,0,-52.300109,True,3.617
15,0,19-May-2018,1,2,70,Sub15_Trial70_0,0,1,1,48.760149,True,3.617
15,0,19-May-2018,1,2,70,Sub15_Trial70_0,0,2,2,-46.046354,True,3.617
15,0,19-May-2018,1,2,70,Sub15_Trial70_0,0,3,3,90.476389,True,3.617
15,0,19-May-2018,1,2,70,Sub15_Trial70_0,0,4,4,-30.808953,True,3.617
15,0,19-May-2018,1,2,70,Sub15_Trial70_0,0,5,5,-28.788556,True,3.617
15,0,19-May-2018,1,2,70,Sub15_Trial70_0,0,6,6,35.795338,True,3.617
15,0,19-May-2018,1,2,70,Sub15_Trial70_1,1,0,0,36.660014,False,3.617
15,0,19-May-2018,1,2,70,Sub15_Trial70_1,1,1,1,24.136592,False,3.617
15,0,19-May-2018,1,2,70,Sub15_Trial70_1,1,2,2,17.198341,False,3.617
15,0,19-May-2018,1,2,70,Sub15_Trial70_1,1,3,3,-56.332439,False,3.617
15,0,19-May-2018,1,2,70,Sub15_Trial70_1,1,4,4,47.850002,False,3.617
15,0,19-May-2018,1,2,70,Sub15_Trial70_1,1,5,5,-151.110961,False,3.617
15,0,19-May-2018,1,2,70,Sub15_Trial70_1,1,6,6,43.294835,False,3.617
15,0,19-May-2018,1,2,71,Sub15_Trial71_0,0,0,0,132.366319,False,0.884
15,0,19-May-2018,1,2,71,Sub15_Trial71_0,0,1,1,-26.731282,False,0.884
15,0,19-May-2018,1,2,71,Sub15_Trial71_0,0,2,2,-82.025323,False,0.884
15,0,19-May-2018,1,2,71,Sub15_Trial71_0,0,3,3,-75.389838,False,0.884
15,0,19-May-2018,1,2,71,Sub15_Trial71_0,0,4,4,68.857986,False,0.884
15,0,19-May-2018,1,2,71,Sub15_Trial71_0,0,5,5,-83.470251,False,0.884
15,0,19-May-2018,1,2,71,Sub15_Trial71_0,0,6,6,-62.576242,False,0.884
15,0,19-May-2018,1,2,71,Sub15_Trial71_1,1,0,0,133.259906,True,0.884
15,0,19-May-2018,1,2,71,Sub15_Trial71_1,1,1,1,100.009366,True,0.884
15,0,19-May-2018,1,2,71,Sub15_Trial71_1,1,2,2,-38.001188,True,0.884
15,0,19-May-2018,1,2,71,Sub15_Trial71_1,1,3,3,75.695466,True,0.884
15,0,19-May-2018,1,2,71,Sub15_Trial71_1,1,4,4,171.25738,True,0.884
15,0,19-May-2018,1,2,71,Sub15_Trial71_1,1,5,5,53.623668,True,0.884
15,0,19-May-2018,1,2,71,Sub15_Trial71_1,1,6,6,7.072287,True,0.884
15,0,19-May-2018,1,2,72,Sub15_Trial72_0,0,0,0,16.161492,False,1.356
15,0,19-May-2018,1,2,72,Sub15_Trial72_0,0,1,1,90.885966,False,1.356
15,0,19-May-2018,1,2,72,Sub15_Trial72_0,0,2,2,-8.604655,False,1.356
15,0,19-May-2018,1,2,72,Sub15_Trial72_0,0,3,3,128.22586,False,1.356
15,0,19-May-2018,1,2,72,Sub15_Trial72_0,0,4,4,-40.74124,False,1.356
15,0,19-May-2018,1,2,72,Sub15_Trial72_0,0,5,5,-71.501476,False,1.356
15,0,19-May-2018,1,2,72,Sub15_Trial72_0,0,6,6,12.836907,False,1.356
15,0,19-May-2018,1,2,72,Sub15_Trial72_1,1,0,0,-99.65473,True,1.356
15,0,19-May-2018,1,2,72,Sub15_Trial72_1,1,1,1,-17.897965,True,1.356
15,0,19-May-2018,1,2,72,Sub15_Trial72_1,1,2,2,21.535193,True,1.356
15,0,19-May-2018,1,2,72,Sub15_Trial72_1,1,3,3,81.686016,True,1.356
15,0,19-May-2018,1,2,72,Sub15_Trial72_1,1,4,4,-102.276936,True,1.356
15,0,19-May-2018,1,2,72,Sub15_Trial72_1,1,5,5,78.538147,True,1.356
15,0,19-May-2018,1,2,72,Sub15_Trial72_1,1,6,6,-16.331881,True,1.356
15,0,19-May-2018,1,2,73,Sub15_Trial73_0,0,0,0,14.546724,True,1.745
15,0,19-May-2018,1,2,73,Sub15_Trial73_0,0,1,1,88.664035,True,1.745
15,0,19-May-2018,1,2,73,Sub15_Trial73_0,0,2,2,14.01011,True,1.745
15,0,19-May-2018,1,2,73,Sub15_Trial73_0,0,3,3,97.851972,True,1.745
15,0,19-May-2018,1,2,73,Sub15_Trial73_0,0,4,4,-16.677236,True,1.745
15,0,19-May-2018,1,2,73,Sub15_Trial73_0,0,5,5,75.081664,True,1.745
15,0,19-May-2018,1,2,73,Sub15_Trial73_0,0,6,6,15.186066,True,1.745
15,0,19-May-2018,1,2,73,Sub15_Trial73_1,1,0,0,-2.818509,False,1.745
15,0,19-May-2018,1,2,73,Sub15_Trial73_1,1,1,1,132.972417,False,1.745
15,0,19-May-2018,1,2,73,Sub15_Trial73_1,1,2,2,-41.717521,False,1.745
15,0,19-May-2018,1,2,73,Sub15_Trial73_1,1,3,3,87.805054,False,1.745
15,0,19-May-2018,1,2,73,Sub15_Trial73_1,1,4,4,175.36733,False,1.745
15,0,19-May-2018,1,2,73,Sub15_Trial73_1,1,5,5,-91.698571,False,1.745
15,0,19-May-2018,1,2,73,Sub15_Trial73_1,1,6,6,111.362539,False,1.745
15,0,19-May-2018,1,2,74,Sub15_Trial74_0,0,0,0,19.933776,False,1.379
15,0,19-May-2018,1,2,74,Sub15_Trial74_0,0,1,1,119.021505,False,1.379
15,0,19-May-2018,1,2,74,Sub15_Trial74_0,0,2,2,44.30316,False,1.379
15,0,19-May-2018,1,2,74,Sub15_Trial74_0,0,3,3,-55.102805,False,1.379
15,0,19-May-2018,1,2,74,Sub15_Trial74_0,0,4,4,10.101115,False,1.379
15,0,19-May-2018,1,2,74,Sub15_Trial74_0,0,5,5,-67.889021,False,1.379
15,0,19-May-2018,1,2,74,Sub15_Trial74_0,0,6,6,-94.897935,False,1.379
15,0,19-May-2018,1,2,74,Sub15_Trial74_1,1,0,0,68.482371,True,1.379
15,0,19-May-2018,1,2,74,Sub15_Trial74_1,1,1,1,162.936809,True,1.379
15,0,19-May-2018,1,2,74,Sub15_Trial74_1,1,2,2,35.098057,True,1.379
15,0,19-May-2018,1,2,74,Sub15_Trial74_1,1,3,3,31.858739,True,1.379
15,0,19-May-2018,1,2,74,Sub15_Trial74_1,1,4,4,-106.193863,True,1.379
15,0,19-May-2018,1,2,74,Sub15_Trial74_1,1,5,5,82.838339,True,1.379
15,0,19-May-2018,1,2,74,Sub15_Trial74_1,1,6,6,-179.905765,True,1.379
15,0,19-May-2018,1,2,75,Sub15_Trial75_0,0,0,0,39.452957,False,1.114
15,0,19-May-2018,1,2,75,Sub15_Trial75_0,0,1,1,-129.414599,False,1.114
15,0,19-May-2018,1,2,75,Sub15_Trial75_0,0,2,2,7.349031,False,1.114
15,0,19-May-2018,1,2,75,Sub15_Trial75_0,0,3,3,-173.39792,False,1.114
15,0,19-May-2018,1,2,75,Sub15_Trial75_0,0,4,4,-63.27624,False,1.114
15,0,19-May-2018,1,2,75,Sub15_Trial75_0,0,5,5,-156.168778,False,1.114
15,0,19-May-2018,1,2,75,Sub15_Trial75_0,0,6,6,-77.908097,False,1.114
15,0,19-May-2018,1,2,75,Sub15_Trial75_1,1,0,0,-38.959124,True,1.114
15,0,19-May-2018,1,2,75,Sub15_Trial75_1,1,1,1,136.979372,True,1.114
15,0,19-May-2018,1,2,75,Sub15_Trial75_1,1,2,2,-53.030238,True,1.114
15,0,19-May-2018,1,2,75,Sub15_Trial75_1,1,3,3,-145.390352,True,1.114
15,0,19-May-2018,1,2,75,Sub15_Trial75_1,1,4,4,84.34728,True,1.114
15,0,19-May-2018,1,2,75,Sub15_Trial75_1,1,5,5,136.821546,True,1.114
15,0,19-May-2018,1,2,75,Sub15_Trial75_1,1,6,6,66.627563,True,1.114
15,0,19-May-2018,1,2,76,Sub15_Trial76_0,0,0,0,-89.278451,False,2.117
15,0,19-May-2018,1,2,76,Sub15_Trial76_0,0,1,1,18.697132,False,2.117
15,0,19-May-2018,1,2,76,Sub15_Trial76_0,0,2,2,-41.13874,False,2.117
15,0,19-May-2018,1,2,76,Sub15_Trial76_0,0,3,3,-45.503887,False,2.117
15,0,19-May-2018,1,2,76,Sub15_Trial76_0,0,4,4,-53.015092,False,2.117
15,0,19-May-2018,1,2,76,Sub15_Trial76_0,0,5,5,57.170985,False,2.117
15,0,19-May-2018,1,2,76,Sub15_Trial76_0,0,6,6,-28.552104,False,2.117
15,0,19-May-2018,1,2,76,Sub15_Trial76_1,1,0,0,-41.415463,True,2.117
15,0,19-May-2018,1,2,76,Sub15_Trial76_1,1,1,1,0.314085,True,2.117
15,0,19-May-2018,1,2,76,Sub15_Trial76_1,1,2,2,20.569541,True,2.117
15,0,19-May-2018,1,2,76,Sub15_Trial76_1,1,3,3,115.630864,True,2.117
15,0,19-May-2018,1,2,76,Sub15_Trial76_1,1,4,4,71.865629,True,2.117
15,0,19-May-2018,1,2,76,Sub15_Trial76_1,1,5,5,4.949689,True,2.117
15,0,19-May-2018,1,2,76,Sub15_Trial76_1,1,6,6,25.996571,True,2.117
15,0,19-May-2018,1,2,77,Sub15_Trial77_0,0,0,0,60.550607,False,2.22
15,0,19-May-2018,1,2,77,Sub15_Trial77_0,0,1,1,14.459153,False,2.22
15,0,19-May-2018,1,2,77,Sub15_Trial77_0,0,2,2,-12.197462,False,2.22
15,0,19-May-2018,1,2,77,Sub15_Trial77_0,0,3,3,-105.317129,False,2.22
15,0,19-May-2018,1,2,77,Sub15_Trial77_0,0,4,4,32.144542,False,2.22
15,0,19-May-2018,1,2,77,Sub15_Trial77_0,0,5,5,-117.42027,False,2.22
15,0,19-May-2018,1,2,77,Sub15_Trial77_0,0,6,6,185.238307,False,2.22
15,0,19-May-2018,1,2,77,Sub15_Trial77_1,1,0,0,-48.491575,True,2.22
15,0,19-May-2018,1,2,77,Sub15_Trial77_1,1,1,1,44.461809,True,2.22
15,0,19-May-2018,1,2,77,Sub15_Trial77_1,1,2,2,29.769923,True,2.22
15,0,19-May-2018,1,2,77,Sub15_Trial77_1,1,3,3,-21.340763,True,2.22
15,0,19-May-2018,1,2,77,Sub15_Trial77_1,1,4,4,-12.448112,True,2.22
15,0,19-May-2018,1,2,77,Sub15_Trial77_1,1,5,5,-13.766108,True,2.22
15,0,19-May-2018,1,2,77,Sub15_Trial77_1,1,6,6,-109.23356,True,2.22
15,0,19-May-2018,1,2,78,Sub15_Trial78_0,0,0,0,34.775259,False,0.863
15,0,19-May-2018,1,2,78,Sub15_Trial78_0,0,1,1,126.391475,False,0.863
15,0,19-May-2018,1,2,78,Sub15_Trial78_0,0,2,2,92.617132,False,0.863
15,0,19-May-2018,1,2,78,Sub15_Trial78_0,0,3,3,38.931791,False,0.863
15,0,19-May-2018,1,2,78,Sub15_Trial78_0,0,4,4,24.136309,False,0.863
15,0,19-May-2018,1,2,78,Sub15_Trial78_0,0,5,5,-38.892902,False,0.863
15,0,19-May-2018,1,2,78,Sub15_Trial78_0,0,6,6,69.351174,False,0.863
15,0,19-May-2018,1,2,78,Sub15_Trial78_1,1,0,0,-17.133229,True,0.863
15,0,19-May-2018,1,2,78,Sub15_Trial78_1,1,1,1,-54.334692,True,0.863
15,0,19-May-2018,1,2,78,Sub15_Trial78_1,1,2,2,-88.249876,True,0.863
15,0,19-May-2018,1,2,78,Sub15_Trial78_1,1,3,3,-63.328974,True,0.863
15,0,19-May-2018,1,2,78,Sub15_Trial78_1,1,4,4,82.936831,True,0.863
15,0,19-May-2018,1,2,78,Sub15_Trial78_1,1,5,5,91.875491,True,0.863
15,0,19-May-2018,1,2,78,Sub15_Trial78_1,1,6,6,135.825836,True,0.863
15,0,19-May-2018,1,2,79,Sub15_Trial79_0,0,0,0,-132.677158,False,40.226
15,0,19-May-2018,1,2,79,Sub15_Trial79_0,0,1,1,130.417254,False,40.226
15,0,19-May-2018,1,2,79,Sub15_Trial79_0,0,2,2,-135.690694,False,40.226
15,0,19-May-2018,1,2,79,Sub15_Trial79_0,0,3,3,-0.647465,False,40.226
15,0,19-May-2018,1,2,79,Sub15_Trial79_0,0,4,4,-124.022614,False,40.226
15,0,19-May-2018,1,2,79,Sub15_Trial79_0,0,5,5,105.861976,False,40.226
15,0,19-May-2018,1,2,79,Sub15_Trial79_0,0,6,6,-120.425976,False,40.226
15,0,19-May-2018,1,2,79,Sub15_Trial79_1,1,0,0,75.020098,True,40.226
15,0,19-May-2018,1,2,79,Sub15_Trial79_1,1,1,1,-72.604588,True,40.226
15,0,19-May-2018,1,2,79,Sub15_Trial79_1,1,2,2,-150.629794,True,40.226
15,0,19-May-2018,1,2,79,Sub15_Trial79_1,1,3,3,-34.236142,True,40.226
15,0,19-May-2018,1,2,79,Sub15_Trial79_1,1,4,4,-10.376735,True,40.226
15,0,19-May-2018,1,2,79,Sub15_Trial79_1,1,5,5,-47.421085,True,40.226
15,0,19-May-2018,1,2,79,Sub15_Trial79_1,1,6,6,-29.350547,True,40.226
15,0,19-May-2018,1,2,80,Sub15_Trial80_0,0,0,0,43.645811,False,1.8
15,0,19-May-2018,1,2,80,Sub15_Trial80_0,0,1,1,102.853409,False,1.8
15,0,19-May-2018,1,2,80,Sub15_Trial80_0,0,2,2,182.07445,False,1.8
15,0,19-May-2018,1,2,80,Sub15_Trial80_0,0,3,3,-63.532816,False,1.8
15,0,19-May-2018,1,2,80,Sub15_Trial80_0,0,4,4,-0.423129,False,1.8
15,0,19-May-2018,1,2,80,Sub15_Trial80_0,0,5,5,-24.510824,False,1.8
15,0,19-May-2018,1,2,80,Sub15_Trial80_0,0,6,6,-140.450603,False,1.8
15,0,19-May-2018,1,2,80,Sub15_Trial80_1,1,0,0,105.976193,True,1.8
15,0,19-May-2018,1,2,80,Sub15_Trial80_1,1,1,1,41.778257,True,1.8
15,0,19-May-2018,1,2,80,Sub15_Trial80_1,1,2,2,90.558514,True,1.8
15,0,19-May-2018,1,2,80,Sub15_Trial80_1,1,3,3,129.386715,True,1.8
15,0,19-May-2018,1,2,80,Sub15_Trial80_1,1,4,4,43.213196,True,1.8
15,0,19-May-2018,1,2,80,Sub15_Trial80_1,1,5,5,-72.500932,True,1.8
15,0,19-May-2018,1,2,80,Sub15_Trial80_1,1,6,6,184.944922,True,1.8
15,0,19-May-2018,1,2,81,Sub15_Trial81_0,0,0,0,56.40414,True,4.976
15,0,19-May-2018,1,2,81,Sub15_Trial81_0,0,1,1,83.024765,True,4.976
15,0,19-May-2018,1,2,81,Sub15_Trial81_0,0,2,2,159.683772,True,4.976
15,0,19-May-2018,1,2,81,Sub15_Trial81_0,0,3,3,-79.231701,True,4.976
15,0,19-May-2018,1,2,81,Sub15_Trial81_0,0,4,4,-156.000602,True,4.976
15,0,19-May-2018,1,2,81,Sub15_Trial81_0,0,5,5,-58.729278,True,4.976
15,0,19-May-2018,1,2,81,Sub15_Trial81_0,0,6,6,90.104164,True,4.976
15,0,19-May-2018,1,2,81,Sub15_Trial81_1,1,0,0,26.105931,False,4.976
15,0,19-May-2018,1,2,81,Sub15_Trial81_1,1,1,1,-166.268787,False,4.976
15,0,19-May-2018,1,2,81,Sub15_Trial81_1,1,2,2,39.623259,False,4.976
15,0,19-May-2018,1,2,81,Sub15_Trial81_1,1,3,3,-45.929701,False,4.976
15,0,19-May-2018,1,2,81,Sub15_Trial81_1,1,4,4,-15.988595,False,4.976
15,0,19-May-2018,1,2,81,Sub15_Trial81_1,1,5,5,-84.471263,False,4.976
15,0,19-May-2018,1,2,81,Sub15_Trial81_1,1,6,6,60.321166,False,4.976
15,0,19-May-2018,1,2,82,Sub15_Trial82_0,0,0,0,25.794633,False,1.106
15,0,19-May-2018,1,2,82,Sub15_Trial82_0,0,1,1,24.623717,False,1.106
15,0,19-May-2018,1,2,82,Sub15_Trial82_0,0,2,2,-88.726586,False,1.106
15,0,19-May-2018,1,2,82,Sub15_Trial82_0,0,3,3,-49.516266,False,1.106
15,0,19-May-2018,1,2,82,Sub15_Trial82_0,0,4,4,-8.593347,False,1.106
15,0,19-May-2018,1,2,82,Sub15_Trial82_0,0,5,5,-83.475933,False,1.106
15,0,19-May-2018,1,2,82,Sub15_Trial82_0,0,6,6,-76.428394,False,1.106
15,0,19-May-2018,1,2,82,Sub15_Trial82_1,1,0,0,-83.45498,True,1.106
15,0,19-May-2018,1,2,82,Sub15_Trial82_1,1,1,1,31.435244,True,1.106
15,0,19-May-2018,1,2,82,Sub15_Trial82_1,1,2,2,76.319256,True,1.106
15,0,19-May-2018,1,2,82,Sub15_Trial82_1,1,3,3,-141.957851,True,1.106
15,0,19-May-2018,1,2,82,Sub15_Trial82_1,1,4,4,62.629227,True,1.106
15,0,19-May-2018,1,2,82,Sub15_Trial82_1,1,5,5,-158.825444,True,1.106
15,0,19-May-2018,1,2,82,Sub15_Trial82_1,1,6,6,-103.795333,True,1.106
15,0,19-May-2018,1,2,83,Sub15_Trial83_0,0,0,0,70.786906,False,1.887
15,0,19-May-2018,1,2,83,Sub15_Trial83_0,0,1,1,180.473548,False,1.887
15,0,19-May-2018,1,2,83,Sub15_Trial83_0,0,2,2,-24.144208,False,1.887
15,0,19-May-2018,1,2,83,Sub15_Trial83_0,0,3,3,-27.847767,False,1.887
15,0,19-May-2018,1,2,83,Sub15_Trial83_0,0,4,4,158.995027,False,1.887
15,0,19-May-2018,1,2,83,Sub15_Trial83_0,0,5,5,104.21526,False,1.887
15,0,19-May-2018,1,2,83,Sub15_Trial83_0,0,6,6,-39.587544,False,1.887
15,0,19-May-2018,1,2,83,Sub15_Trial83_1,1,0,0,-31.358362,True,1.887
15,0,19-May-2018,1,2,83,Sub15_Trial83_1,1,1,1,95.8264,True,1.887
15,0,19-May-2018,1,2,83,Sub15_Trial83_1,1,2,2,67.802637,True,1.887
15,0,19-May-2018,1,2,83,Sub15_Trial83_1,1,3,3,68.250483,True,1.887
15,0,19-May-2018,1,2,83,Sub15_Trial83_1,1,4,4,99.589155,True,1.887
15,0,19-May-2018,1,2,83,Sub15_Trial83_1,1,5,5,-87.575271,True,1.887
15,0,19-May-2018,1,2,83,Sub15_Trial83_1,1,6,6,185.985791,True,1.887
15,0,19-May-2018,1,2,84,Sub15_Trial84_0,0,0,0,20.796464,False,1.394
15,0,19-May-2018,1,2,84,Sub15_Trial84_0,0,1,1,56.032796,False,1.394
15,0,19-May-2018,1,2,84,Sub15_Trial84_0,0,2,2,-77.506193,False,1.394
15,0,19-May-2018,1,2,84,Sub15_Trial84_0,0,3,3,19.062669,False,1.394
15,0,19-May-2018,1,2,84,Sub15_Trial84_0,0,4,4,-98.956873,False,1.394
15,0,19-May-2018,1,2,84,Sub15_Trial84_0,0,5,5,53.192647,False,1.394
15,0,19-May-2018,1,2,84,Sub15_Trial84_0,0,6,6,-97.429565,False,1.394
15,0,19-May-2018,1,2,84,Sub15_Trial84_1,1,0,0,-9.552322,True,1.394
15,0,19-May-2018,1,2,84,Sub15_Trial84_1,1,1,1,-14.997213,True,1.394
15,0,19-May-2018,1,2,84,Sub15_Trial84_1,1,2,2,49.50468,True,1.394
15,0,19-May-2018,1,2,84,Sub15_Trial84_1,1,3,3,-1.164329,True,1.394
15,0,19-May-2018,1,2,84,Sub15_Trial84_1,1,4,4,36.192951,True,1.394
15,0,19-May-2018,1,2,84,Sub15_Trial84_1,1,5,5,60.549195,True,1.394
15,0,19-May-2018,1,2,84,Sub15_Trial84_1,1,6,6,136.073593,True,1.394
15,0,19-May-2018,1,2,85,Sub15_Trial85_0,0,0,0,-46.716947,False,1.25
15,0,19-May-2018,1,2,85,Sub15_Trial85_0,0,1,1,40.458644,False,1.25
15,0,19-May-2018,1,2,85,Sub15_Trial85_0,0,2,2,134.422947,False,1.25
15,0,19-May-2018,1,2,85,Sub15_Trial85_0,0,3,3,-85.452703,False,1.25
15,0,19-May-2018,1,2,85,Sub15_Trial85_0,0,4,4,45.601408,False,1.25
15,0,19-May-2018,1,2,85,Sub15_Trial85_0,0,5,5,-7.105646,False,1.25
15,0,19-May-2018,1,2,85,Sub15_Trial85_0,0,6,6,7.725634,False,1.25
15,0,19-May-2018,1,2,85,Sub15_Trial85_1,1,0,0,-49.759842,True,1.25
15,0,19-May-2018,1,2,85,Sub15_Trial85_1,1,1,1,-39.607118,True,1.25
15,0,19-May-2018,1,2,85,Sub15_Trial85_1,1,2,2,-6.701661,True,1.25
15,0,19-May-2018,1,2,85,Sub15_Trial85_1,1,3,3,-84.653447,True,1.25
15,0,19-May-2018,1,2,85,Sub15_Trial85_1,1,4,4,125.274855,True,1.25
15,0,19-May-2018,1,2,85,Sub15_Trial85_1,1,5,5,88.332098,True,1.25
15,0,19-May-2018,1,2,85,Sub15_Trial85_1,1,6,6,-27.406963,True,1.25
15,0,19-May-2018,1,2,86,Sub15_Trial86_0,0,0,0,121.054089,False,2.526
15,0,19-May-2018,1,2,86,Sub15_Trial86_0,0,1,1,42.995145,False,2.526
15,0,19-May-2018,1,2,86,Sub15_Trial86_0,0,2,2,-12.482728,False,2.526
15,0,19-May-2018,1,2,86,Sub15_Trial86_0,0,3,3,50.236048,False,2.526
15,0,19-May-2018,1,2,86,Sub15_Trial86_0,0,4,4,-59.863714,False,2.526
15,0,19-May-2018,1,2,86,Sub15_Trial86_0,0,5,5,31.362577,False,2.526
15,0,19-May-2018,1,2,86,Sub15_Trial86_0,0,6,6,-27.07942,False,2.526
15,0,19-May-2018,1,2,86,Sub15_Trial86_1,1,0,0,32.541965,True,2.526
15,0,19-May-2018,1,2,86,Sub15_Trial86_1,1,1,1,156.386466,True,2.526
15,0,19-May-2018,1,2,86,Sub15_Trial86_1,1,2,2,-53.829839,True,2.526
15,0,19-May-2018,1,2,86,Sub15_Trial86_1,1,3,3,-45.555449,True,2.526
15,0,19-May-2018,1,2,86,Sub15_Trial86_1,1,4,4,98.74501,True,2.526
15,0,19-May-2018,1,2,86,Sub15_Trial86_1,1,5,5,6.05335,True,2.526
15,0,19-May-2018,1,2,86,Sub15_Trial86_1,1,6,6,70.922685,True,2.526
15,0,19-May-2018,1,2,87,Sub15_Trial87_0,0,0,0,19.982582,False,1.328
15,0,19-May-2018,1,2,87,Sub15_Trial87_0,0,1,1,53.439882,False,1.328
15,0,19-May-2018,1,2,87,Sub15_Trial87_0,0,2,2,101.680666,False,1.328
15,0,19-May-2018,1,2,87,Sub15_Trial87_0,0,3,3,-54.549368,False,1.328
15,0,19-May-2018,1,2,87,Sub15_Trial87_0,0,4,4,23.72201,False,1.328
15,0,19-May-2018,1,2,87,Sub15_Trial87_0,0,5,5,-170.776676,False,1.328
15,0,19-May-2018,1,2,87,Sub15_Trial87_0,0,6,6,51.934181,False,1.328
15,0,19-May-2018,1,2,87,Sub15_Trial87_1,1,0,0,54.590667,True,1.328
15,0,19-May-2018,1,2,87,Sub15_Trial87_1,1,1,1,-14.293349,True,1.328
15,0,19-May-2018,1,2,87,Sub15_Trial87_1,1,2,2,-13.270972,True,1.328
15,0,19-May-2018,1,2,87,Sub15_Trial87_1,1,3,3,106.800748,True,1.328
15,0,19-May-2018,1,2,87,Sub15_Trial87_1,1,4,4,44.921066,True,1.328
15,0,19-May-2018,1,2,87,Sub15_Trial87_1,1,5,5,158.611974,True,1.328
15,0,19-May-2018,1,2,87,Sub15_Trial87_1,1,6,6,-62.237735,True,1.328
15,0,19-May-2018,1,2,88,Sub15_Trial88_0,0,0,0,-143.625015,True,0.736
15,0,19-May-2018,1,2,88,Sub15_Trial88_0,0,1,1,26.820678,True,0.736
15,0,19-May-2018,1,2,88,Sub15_Trial88_0,0,2,2,-64.690619,True,0.736
15,0,19-May-2018,1,2,88,Sub15_Trial88_0,0,3,3,-179.164315,True,0.736
15,0,19-May-2018,1,2,88,Sub15_Trial88_0,0,4,4,99.535174,True,0.736
15,0,19-May-2018,1,2,88,Sub15_Trial88_0,0,5,5,-180.033742,True,0.736
15,0,19-May-2018,1,2,88,Sub15_Trial88_0,0,6,6,167.470465,True,0.736
15,0,19-May-2018,1,2,88,Sub15_Trial88_1,1,0,0,110.46431,False,0.736
15,0,19-May-2018,1,2,88,Sub15_Trial88_1,1,1,1,4.56119,False,0.736
15,0,19-May-2018,1,2,88,Sub15_Trial88_1,1,2,2,182.743203,False,0.736
15,0,19-May-2018,1,2,88,Sub15_Trial88_1,1,3,3,-11.635645,False,0.736
15,0,19-May-2018,1,2,88,Sub15_Trial88_1,1,4,4,24.850383,False,0.736
15,0,19-May-2018,1,2,88,Sub15_Trial88_1,1,5,5,-35.200417,False,0.736
15,0,19-May-2018,1,2,88,Sub15_Trial88_1,1,6,6,13.272387,False,0.736
15,0,19-May-2018,1,2,89,Sub15_Trial89_0,0,0,0,36.176501,True,0.585
15,0,19-May-2018,1,2,89,Sub15_Trial89_0,0,1,1,-13.216032,True,0.585
15,0,19-May-2018,1,2,89,Sub15_Trial89_0,0,2,2,-50.293635,True,0.585
15,0,19-May-2018,1,2,89,Sub15_Trial89_0,0,3,3,-75.145863,True,0.585
15,0,19-May-2018,1,2,89,Sub15_Trial89_0,0,4,4,-55.721532,True,0.585
15,0,19-May-2018,1,2,89,Sub15_Trial89_0,0,5,5,-27.1783,True,0.585
15,0,19-May-2018,1,2,89,Sub15_Trial89_0,0,6,6,42.504109,True,0.585
15,0,19-May-2018,1,2,89,Sub15_Trial89_1,1,0,0,32.521911,False,0.585
15,0,19-May-2018,1,2,89,Sub15_Trial89_1,1,1,1,-123.912225,False,0.585
15,0,19-May-2018,1,2,89,Sub15_Trial89_1,1,2,2,-62.372689,False,0.585
15,0,19-May-2018,1,2,89,Sub15_Trial89_1,1,3,3,84.182907,False,0.585
15,0,19-May-2018,1,2,89,Sub15_Trial89_1,1,4,4,-26.146775,False,0.585
15,0,19-May-2018,1,2,89,Sub15_Trial89_1,1,5,5,40.379813,False,0.585
15,0,19-May-2018,1,2,89,Sub15_Trial89_1,1,6,6,1.820674,False,0.585
15,0,19-May-2018,1,2,90,Sub15_Trial90_0,0,0,0,77.119223,False,1.41
15,0,19-May-2018,1,2,90,Sub15_Trial90_0,0,1,1,108.041914,False,1.41
15,0,19-May-2018,1,2,90,Sub15_Trial90_0,0,2,2,-47.125281,False,1.41
15,0,19-May-2018,1,2,90,Sub15_Trial90_0,0,3,3,-26.23115,False,1.41
15,0,19-May-2018,1,2,90,Sub15_Trial90_0,0,4,4,-179.425115,False,1.41
15,0,19-May-2018,1,2,90,Sub15_Trial90_0,0,5,5,8.487635,False,1.41
15,0,19-May-2018,1,2,90,Sub15_Trial90_0,0,6,6,-41.7134,False,1.41
15,0,19-May-2018,1,2,90,Sub15_Trial90_1,1,0,0,136.239762,True,1.41
15,0,19-May-2018,1,2,90,Sub15_Trial90_1,1,1,1,109.430963,True,1.41
15,0,19-May-2018,1,2,90,Sub15_Trial90_1,1,2,2,146.603923,True,1.41
15,0,19-May-2018,1,2,90,Sub15_Trial90_1,1,3,3,-41.476726,True,1.41
15,0,19-May-2018,1,2,90,Sub15_Trial90_1,1,4,4,76.349824,True,1.41
15,0,19-May-2018,1,2,90,Sub15_Trial90_1,1,5,5,66.046517,True,1.41
15,0,19-May-2018,1,2,90,Sub15_Trial90_1,1,6,6,21.073648,True,1.41
15,0,19-May-2018,1,2,91,Sub15_Trial91_0,0,0,0,-44.303428,False,2.038
15,0,19-May-2018,1,2,91,Sub15_Trial91_0,0,1,1,-42.671181,False,2.038
15,0,19-May-2018,1,2,91,Sub15_Trial91_0,0,2,2,2.411187,False,2.038
15,0,19-May-2018,1,2,91,Sub15_Trial91_0,0,3,3,71.753945,False,2.038
15,0,19-May-2018,1,2,91,Sub15_Trial91_0,0,4,4,-47.552307,False,2.038
15,0,19-May-2018,1,2,91,Sub15_Trial91_0,0,5,5,130.186036,False,2.038
15,0,19-May-2018,1,2,91,Sub15_Trial91_0,0,6,6,-67.715293,False,2.038
15,0,19-May-2018,1,2,91,Sub15_Trial91_1,1,0,0,143.365923,True,2.038
15,0,19-May-2018,1,2,91,Sub15_Trial91_1,1,1,1,30.353209,True,2.038
15,0,19-May-2018,1,2,91,Sub15_Trial91_1,1,2,2,7.422773,True,2.038
15,0,19-May-2018,1,2,91,Sub15_Trial91_1,1,3,3,65.388118,True,2.038
15,0,19-May-2018,1,2,91,Sub15_Trial91_1,1,4,4,64.858717,True,2.038
15,0,19-May-2018,1,2,91,Sub15_Trial91_1,1,5,5,89.237397,True,2.038
15,0,19-May-2018,1,2,91,Sub15_Trial91_1,1,6,6,76.45478,True,2.038
15,0,19-May-2018,1,2,92,Sub15_Trial92_0,0,0,0,-91.652839,False,0.614
15,0,19-May-2018,1,2,92,Sub15_Trial92_0,0,1,1,-138.47037,False,0.614
15,0,19-May-2018,1,2,92,Sub15_Trial92_0,0,2,2,5.370442,False,0.614
15,0,19-May-2018,1,2,92,Sub15_Trial92_0,0,3,3,8.055287,False,0.614
15,0,19-May-2018,1,2,92,Sub15_Trial92_0,0,4,4,71.564431,False,0.614
15,0,19-May-2018,1,2,92,Sub15_Trial92_0,0,5,5,-45.217266,False,0.614
15,0,19-May-2018,1,2,92,Sub15_Trial92_0,0,6,6,86.859677,False,0.614
15,0,19-May-2018,1,2,92,Sub15_Trial92_1,1,0,0,-31.269673,True,0.614
15,0,19-May-2018,1,2,92,Sub15_Trial92_1,1,1,1,88.388514,True,0.614
15,0,19-May-2018,1,2,92,Sub15_Trial92_1,1,2,2,-3.185239,True,0.614
15,0,19-May-2018,1,2,92,Sub15_Trial92_1,1,3,3,-26.560346,True,0.614
15,0,19-May-2018,1,2,92,Sub15_Trial92_1,1,4,4,12.174173,True,0.614
15,0,19-May-2018,1,2,92,Sub15_Trial92_1,1,5,5,88.820827,True,0.614
15,0,19-May-2018,1,2,92,Sub15_Trial92_1,1,6,6,138.477376,True,0.614
15,0,19-May-2018,1,2,93,Sub15_Trial93_0,0,0,0,20.24949,False,0.713
15,0,19-May-2018,1,2,93,Sub15_Trial93_0,0,1,1,153.166439,False,0.713
15,0,19-May-2018,1,2,93,Sub15_Trial93_0,0,2,2,170.650412,False,0.713
15,0,19-May-2018,1,2,93,Sub15_Trial93_0,0,3,3,25.504605,False,0.713
15,0,19-May-2018,1,2,93,Sub15_Trial93_0,0,4,4,-80.306012,False,0.713
15,0,19-May-2018,1,2,93,Sub15_Trial93_0,0,5,5,-97.836323,False,0.713
15,0,19-May-2018,1,2,93,Sub15_Trial93_0,0,6,6,-28.951163,False,0.713
15,0,19-May-2018,1,2,93,Sub15_Trial93_1,1,0,0,87.745962,True,0.713
15,0,19-May-2018,1,2,93,Sub15_Trial93_1,1,1,1,21.56698,True,0.713
15,0,19-May-2018,1,2,93,Sub15_Trial93_1,1,2,2,85.425198,True,0.713
15,0,19-May-2018,1,2,93,Sub15_Trial93_1,1,3,3,-92.951279,True,0.713
15,0,19-May-2018,1,2,93,Sub15_Trial93_1,1,4,4,84.558295,True,0.713
15,0,19-May-2018,1,2,93,Sub15_Trial93_1,1,5,5,173.827987,True,0.713
15,0,19-May-2018,1,2,93,Sub15_Trial93_1,1,6,6,48.989195,True,0.713
15,0,19-May-2018,1,2,94,Sub15_Trial94_0,0,0,0,-12.306074,False,1.652
15,0,19-May-2018,1,2,94,Sub15_Trial94_0,0,1,1,29.221255,False,1.652
15,0,19-May-2018,1,2,94,Sub15_Trial94_0,0,2,2,-164.880804,False,1.652
15,0,19-May-2018,1,2,94,Sub15_Trial94_0,0,3,3,-39.0997,False,1.652
15,0,19-May-2018,1,2,94,Sub15_Trial94_0,0,4,4,-161.508668,False,1.652
15,0,19-May-2018,1,2,94,Sub15_Trial94_0,0,5,5,137.693799,False,1.652
15,0,19-May-2018,1,2,94,Sub15_Trial94_0,0,6,6,73.325422,False,1.652
15,0,19-May-2018,1,2,94,Sub15_Trial94_1,1,0,0,-67.865048,True,1.652
15,0,19-May-2018,1,2,94,Sub15_Trial94_1,1,1,1,120.35052,True,1.652
15,0,19-May-2018,1,2,94,Sub15_Trial94_1,1,2,2,-131.323903,True,1.652
15,0,19-May-2018,1,2,94,Sub15_Trial94_1,1,3,3,-73.875368,True,1.652
15,0,19-May-2018,1,2,94,Sub15_Trial94_1,1,4,4,-70.073227,True,1.652
15,0,19-May-2018,1,2,94,Sub15_Trial94_1,1,5,5,93.689505,True,1.652
15,0,19-May-2018,1,2,94,Sub15_Trial94_1,1,6,6,183.138034,True,1.652
15,0,19-May-2018,1,2,95,Sub15_Trial95_0,0,0,0,97.911624,False,3.615
15,0,19-May-2018,1,2,95,Sub15_Trial95_0,0,1,1,-67.570126,False,3.615
15,0,19-May-2018,1,2,95,Sub15_Trial95_0,0,2,2,-42.047677,False,3.615
15,0,19-May-2018,1,2,95,Sub15_Trial95_0,0,3,3,-106.98398,False,3.615
15,0,19-May-2018,1,2,95,Sub15_Trial95_0,0,4,4,-74.463564,False,3.615
15,0,19-May-2018,1,2,95,Sub15_Trial95_0,0,5,5,65.643747,False,3.615
15,0,19-May-2018,1,2,95,Sub15_Trial95_0,0,6,6,26.104345,False,3.615
15,0,19-May-2018,1,2,95,Sub15_Trial95_1,1,0,0,-55.124383,True,3.615
15,0,19-May-2018,1,2,95,Sub15_Trial95_1,1,1,1,24.166186,True,3.615
15,0,19-May-2018,1,2,95,Sub15_Trial95_1,1,2,2,-40.785256,True,3.615
15,0,19-May-2018,1,2,95,Sub15_Trial95_1,1,3,3,96.229882,True,3.615
15,0,19-May-2018,1,2,95,Sub15_Trial95_1,1,4,4,-115.494403,True,3.615
15,0,19-May-2018,1,2,95,Sub15_Trial95_1,1,5,5,77.449032,True,3.615
15,0,19-May-2018,1,2,95,Sub15_Trial95_1,1,6,6,83.182641,True,3.615
15,0,19-May-2018,1,2,96,Sub15_Trial96_0,0,0,0,-131.79422,True,1.855
15,0,19-May-2018,1,2,96,Sub15_Trial96_0,0,1,1,82.892911,True,1.855
15,0,19-May-2018,1,2,96,Sub15_Trial96_0,0,2,2,-12.26566,True,1.855
15,0,19-May-2018,1,2,96,Sub15_Trial96_0,0,3,3,-26.879047,True,1.855
15,0,19-May-2018,1,2,96,Sub15_Trial96_0,0,4,4,64.069421,True,1.855
15,0,19-May-2018,1,2,96,Sub15_Trial96_0,0,5,5,-58.533608,True,1.855
15,0,19-May-2018,1,2,96,Sub15_Trial96_0,0,6,6,-2.980077,True,1.855
15,0,19-May-2018,1,2,96,Sub15_Trial96_1,1,0,0,-137.155549,False,1.855
15,0,19-May-2018,1,2,96,Sub15_Trial96_1,1,1,1,-54.450971,False,1.855
15,0,19-May-2018,1,2,96,Sub15_Trial96_1,1,2,2,-8.493594,False,1.855
15,0,19-May-2018,1,2,96,Sub15_Trial96_1,1,3,3,128.153244,False,1.855
15,0,19-May-2018,1,2,96,Sub15_Trial96_1,1,4,4,150.986101,False,1.855
15,0,19-May-2018,1,2,96,Sub15_Trial96_1,1,5,5,-95.902573,False,1.855
15,0,19-May-2018,1,2,96,Sub15_Trial96_1,1,6,6,35.729575,False,1.855
15,0,19-May-2018,1,2,97,Sub15_Trial97_0,0,0,0,189.284995,False,2.157
15,0,19-May-2018,1,2,97,Sub15_Trial97_0,0,1,1,-109.272648,False,2.157
15,0,19-May-2018,1,2,97,Sub15_Trial97_0,0,2,2,-64.576183,False,2.157
15,0,19-May-2018,1,2,97,Sub15_Trial97_0,0,3,3,17.934121,False,2.157
15,0,19-May-2018,1,2,97,Sub15_Trial97_0,0,4,4,-101.230714,False,2.157
15,0,19-May-2018,1,2,97,Sub15_Trial97_0,0,5,5,33.222829,False,2.157
15,0,19-May-2018,1,2,97,Sub15_Trial97_0,0,6,6,-10.344438,False,2.157
15,0,19-May-2018,1,2,97,Sub15_Trial97_1,1,0,0,126.386022,True,2.157
15,0,19-May-2018,1,2,97,Sub15_Trial97_1,1,1,1,-66.828189,True,2.157
15,0,19-May-2018,1,2,97,Sub15_Trial97_1,1,2,2,-12.075,True,2.157
15,0,19-May-2018,1,2,97,Sub15_Trial97_1,1,3,3,49.439657,True,2.157
15,0,19-May-2018,1,2,97,Sub15_Trial97_1,1,4,4,96.814626,True,2.157
15,0,19-May-2018,1,2,97,Sub15_Trial97_1,1,5,5,-44.458805,True,2.157
15,0,19-May-2018,1,2,97,Sub15_Trial97_1,1,6,6,-102.743161,True,2.157
15,0,19-May-2018,1,2,98,Sub15_Trial98_0,0,0,0,-52.471142,True,1.695
15,0,19-May-2018,1,2,98,Sub15_Trial98_0,0,1,1,-41.446506,True,1.695
15,0,19-May-2018,1,2,98,Sub15_Trial98_0,0,2,2,-41.138841,True,1.695
15,0,19-May-2018,1,2,98,Sub15_Trial98_0,0,3,3,-24.984167,True,1.695
15,0,19-May-2018,1,2,98,Sub15_Trial98_0,0,4,4,170.568589,True,1.695
15,0,19-May-2018,1,2,98,Sub15_Trial98_0,0,5,5,76.642882,True,1.695
15,0,19-May-2018,1,2,98,Sub15_Trial98_0,0,6,6,-79.373195,True,1.695
15,0,19-May-2018,1,2,98,Sub15_Trial98_1,1,0,0,-171.697027,False,1.695
15,0,19-May-2018,1,2,98,Sub15_Trial98_1,1,1,1,-9.538618,False,1.695
15,0,19-May-2018,1,2,98,Sub15_Trial98_1,1,2,2,37.095225,False,1.695
15,0,19-May-2018,1,2,98,Sub15_Trial98_1,1,3,3,-17.759688,False,1.695
15,0,19-May-2018,1,2,98,Sub15_Trial98_1,1,4,4,-70.797667,False,1.695
15,0,19-May-2018,1,2,98,Sub15_Trial98_1,1,5,5,-34.201651,False,1.695
15,0,19-May-2018,1,2,98,Sub15_Trial98_1,1,6,6,-60.436256,False,1.695
15,0,19-May-2018,1,2,99,Sub15_Trial99_0,0,0,0,67.208394,True,1.676
15,0,19-May-2018,1,2,99,Sub15_Trial99_0,0,1,1,35.888171,True,1.676
15,0,19-May-2018,1,2,99,Sub15_Trial99_0,0,2,2,-90.575925,True,1.676
15,0,19-May-2018,1,2,99,Sub15_Trial99_0,0,3,3,-39.5404,True,1.676
15,0,19-May-2018,1,2,99,Sub15_Trial99_0,0,4,4,100.238562,True,1.676
15,0,19-May-2018,1,2,99,Sub15_Trial99_0,0,5,5,36.494677,True,1.676
15,0,19-May-2018,1,2,99,Sub15_Trial99_0,0,6,6,57.69315,True,1.676
15,0,19-May-2018,1,2,99,Sub15_Trial99_1,1,0,0,-14.133589,False,1.676
15,0,19-May-2018,1,2,99,Sub15_Trial99_1,1,1,1,33.701042,False,1.676
15,0,19-May-2018,1,2,99,Sub15_Trial99_1,1,2,2,49.238591,False,1.676
15,0,19-May-2018,1,2,99,Sub15_Trial99_1,1,3,3,-4.398859,False,1.676
15,0,19-May-2018,1,2,99,Sub15_Trial99_1,1,4,4,143.64968,False,1.676
15,0,19-May-2018,1,2,99,Sub15_Trial99_1,1,5,5,-88.546343,False,1.676
15,0,19-May-2018,1,2,99,Sub15_Trial99_1,1,6,6,125.300996,False,1.676
15,0,19-May-2018,1,2,100,Sub15_Trial100_0,0,0,0,-13.123578,True,3.355
15,0,19-May-2018,1,2,100,Sub15_Trial100_0,0,1,1,-3.297404,True,3.355
15,0,19-May-2018,1,2,100,Sub15_Trial100_0,0,2,2,29.990244,True,3.355
15,0,19-May-2018,1,2,100,Sub15_Trial100_0,0,3,3,21.399956,True,3.355
15,0,19-May-2018,1,2,100,Sub15_Trial100_0,0,4,4,18.101171,True,3.355
15,0,19-May-2018,1,2,100,Sub15_Trial100_0,0,5,5,-63.195416,True,3.355
15,0,19-May-2018,1,2,100,Sub15_Trial100_0,0,6,6,72.843625,True,3.355
15,0,19-May-2018,1,2,100,Sub15_Trial100_1,1,0,0,-10.106781,False,3.355
15,0,19-May-2018,1,2,100,Sub15_Trial100_1,1,1,1,-44.961545,False,3.355
15,0,19-May-2018,1,2,100,Sub15_Trial100_1,1,2,2,-69.836241,False,3.355
15,0,19-May-2018,1,2,100,Sub15_Trial100_1,1,3,3,32.895322,False,3.355
15,0,19-May-2018,1,2,100,Sub15_Trial100_1,1,4,4,33.752054,False,3.355
15,0,19-May-2018,1,2,100,Sub15_Trial100_1,1,5,5,-63.872418,False,3.355
15,0,19-May-2018,1,2,100,Sub15_Trial100_1,1,6,6,116.600788,False,3.355
15,0,19-May-2018,1,3,101,Sub15_Trial101_0,0,0,0,-141.083502,False,1.783
15,0,19-May-2018,1,3,101,Sub15_Trial101_0,0,1,1,71.625467,False,1.783
15,0,19-May-2018,1,3,101,Sub15_Trial101_0,0,2,2,-6.40281,False,1.783
15,0,19-May-2018,1,3,101,Sub15_Trial101_0,0,3,3,-80.546398,False,1.783
15,0,19-May-2018,1,3,101,Sub15_Trial101_0,0,4,4,-79.646799,False,1.783
15,0,19-May-2018,1,3,101,Sub15_Trial101_0,0,5,5,-50.185149,False,1.783
15,0,19-May-2018,1,3,101,Sub15_Trial101_0,0,6,6,-113.213361,False,1.783
15,0,19-May-2018,1,3,101,Sub15_Trial101_1,1,0,0,66.736944,True,1.783
15,0,19-May-2018,1,3,101,Sub15_Trial101_1,1,1,1,98.917186,True,1.783
15,0,19-May-2018,1,3,101,Sub15_Trial101_1,1,2,2,-77.989545,True,1.783
15,0,19-May-2018,1,3,101,Sub15_Trial101_1,1,3,3,18.436396,True,1.783
15,0,19-May-2018,1,3,101,Sub15_Trial101_1,1,4,4,-47.188745,True,1.783
15,0,19-May-2018,1,3,101,Sub15_Trial101_1,1,5,5,120.190464,True,1.783
15,0,19-May-2018,1,3,101,Sub15_Trial101_1,1,6,6,-6.12378,True,1.783
15,0,19-May-2018,1,3,102,Sub15_Trial102_0,0,0,0,125.457032,False,1.069
15,0,19-May-2018,1,3,102,Sub15_Trial102_0,0,1,1,98.232596,False,1.069
15,0,19-May-2018,1,3,102,Sub15_Trial102_0,0,2,2,10.641992,False,1.069
15,0,19-May-2018,1,3,102,Sub15_Trial102_0,0,3,3,-17.681553,False,1.069
15,0,19-May-2018,1,3,102,Sub15_Trial102_0,0,4,4,-35.746313,False,1.069
15,0,19-May-2018,1,3,102,Sub15_Trial102_0,0,5,5,-5.881369,False,1.069
15,0,19-May-2018,1,3,102,Sub15_Trial102_0,0,6,6,60.903078,False,1.069
15,0,19-May-2018,1,3,102,Sub15_Trial102_1,1,0,0,48.281346,True,1.069
15,0,19-May-2018,1,3,102,Sub15_Trial102_1,1,1,1,1.440113,True,1.069
15,0,19-May-2018,1,3,102,Sub15_Trial102_1,1,2,2,173.570439,True,1.069
15,0,19-May-2018,1,3,102,Sub15_Trial102_1,1,3,3,-108.03211,True,1.069
15,0,19-May-2018,1,3,102,Sub15_Trial102_1,1,4,4,-78.252499,True,1.069
15,0,19-May-2018,1,3,102,Sub15_Trial102_1,1,5,5,108.785326,True,1.069
15,0,19-May-2018,1,3,102,Sub15_Trial102_1,1,6,6,88.035696,True,1.069
15,0,19-May-2018,1,3,103,Sub15_Trial103_0,0,0,0,-79.563941,True,1.212
15,0,19-May-2018,1,3,103,Sub15_Trial103_0,0,1,1,5.849068,True,1.212
15,0,19-May-2018,1,3,103,Sub15_Trial103_0,0,2,2,49.352517,True,1.212
15,0,19-May-2018,1,3,103,Sub15_Trial103_0,0,3,3,-145.643754,True,1.212
15,0,19-May-2018,1,3,103,Sub15_Trial103_0,0,4,4,101.378892,True,1.212
15,0,19-May-2018,1,3,103,Sub15_Trial103_0,0,5,5,-34.34211,True,1.212
15,0,19-May-2018,1,3,103,Sub15_Trial103_0,0,6,6,-8.664571,True,1.212
15,0,19-May-2018,1,3,103,Sub15_Trial103_1,1,0,0,33.974477,False,1.212
15,0,19-May-2018,1,3,103,Sub15_Trial103_1,1,1,1,-65.599344,False,1.212
15,0,19-May-2018,1,3,103,Sub15_Trial103_1,1,2,2,-27.092268,False,1.212
15,0,19-May-2018,1,3,103,Sub15_Trial103_1,1,3,3,-7.605534,False,1.212
15,0,19-May-2018,1,3,103,Sub15_Trial103_1,1,4,4,-10.869442,False,1.212
15,0,19-May-2018,1,3,103,Sub15_Trial103_1,1,5,5,-7.106712,False,1.212
15,0,19-May-2018,1,3,103,Sub15_Trial103_1,1,6,6,79.758365,False,1.212
15,0,19-May-2018,1,3,104,Sub15_Trial104_0,0,0,0,139.791847,False,3.827
15,0,19-May-2018,1,3,104,Sub15_Trial104_0,0,1,1,56.126502,False,3.827
15,0,19-May-2018,1,3,104,Sub15_Trial104_0,0,2,2,-73.821139,False,3.827
15,0,19-May-2018,1,3,104,Sub15_Trial104_0,0,3,3,130.864775,False,3.827
15,0,19-May-2018,1,3,104,Sub15_Trial104_0,0,4,4,-180.465571,False,3.827
15,0,19-May-2018,1,3,104,Sub15_Trial104_0,0,5,5,52.382121,False,3.827
15,0,19-May-2018,1,3,104,Sub15_Trial104_0,0,6,6,23.615965,False,3.827
15,0,19-May-2018,1,3,104,Sub15_Trial104_1,1,0,0,75.567567,True,3.827
15,0,19-May-2018,1,3,104,Sub15_Trial104_1,1,1,1,-80.488609,True,3.827
15,0,19-May-2018,1,3,104,Sub15_Trial104_1,1,2,2,-146.008702,True,3.827
15,0,19-May-2018,1,3,104,Sub15_Trial104_1,1,3,3,133.481639,True,3.827
15,0,19-May-2018,1,3,104,Sub15_Trial104_1,1,4,4,27.864529,True,3.827
15,0,19-May-2018,1,3,104,Sub15_Trial104_1,1,5,5,3.415963,True,3.827
15,0,19-May-2018,1,3,104,Sub15_Trial104_1,1,6,6,-34.642899,True,3.827
15,0,19-May-2018,1,3,105,Sub15_Trial105_0,0,0,0,44.392928,True,2.927
15,0,19-May-2018,1,3,105,Sub15_Trial105_0,0,1,1,-86.426865,True,2.927
15,0,19-May-2018,1,3,105,Sub15_Trial105_0,0,2,2,-2.83376,True,2.927
15,0,19-May-2018,1,3,105,Sub15_Trial105_0,0,3,3,53.983183,True,2.927
15,0,19-May-2018,1,3,105,Sub15_Trial105_0,0,4,4,147.804707,True,2.927
15,0,19-May-2018,1,3,105,Sub15_Trial105_0,0,5,5,-102.215195,True,2.927
15,0,19-May-2018,1,3,105,Sub15_Trial105_0,0,6,6,-68.160717,True,2.927
15,0,19-May-2018,1,3,105,Sub15_Trial105_1,1,0,0,-141.14918,False,2.927
15,0,19-May-2018,1,3,105,Sub15_Trial105_1,1,1,1,72.323532,False,2.927
15,0,19-May-2018,1,3,105,Sub15_Trial105_1,1,2,2,164.780756,False,2.927
15,0,19-May-2018,1,3,105,Sub15_Trial105_1,1,3,3,78.117399,False,2.927
15,0,19-May-2018,1,3,105,Sub15_Trial105_1,1,4,4,-87.472236,False,2.927
15,0,19-May-2018,1,3,105,Sub15_Trial105_1,1,5,5,-12.306312,False,2.927
15,0,19-May-2018,1,3,105,Sub15_Trial105_1,1,6,6,79.848861,False,2.927
15,0,19-May-2018,1,3,106,Sub15_Trial106_0,0,0,0,99.873208,False,1.095
