subj,patient,date,session,part,trial,stim,stim_order,segment,segment_time,pitch,response,rt
35,0,25-Feb-2018,1,1,1,Sub35_Trial1_0,0,0,0,-102.347385,False,52.805
35,0,25-Feb-2018,1,1,1,Sub35_Trial1_0,0,1,1,-17.260557,False,52.805
35,0,25-Feb-2018,1,1,1,Sub35_Trial1_0,0,2,2,75.52847,False,52.805
35,0,25-Feb-2018,1,1,1,Sub35_Trial1_0,0,3,3,-34.321155,False,52.805
35,0,25-Feb-2018,1,1,1,Sub35_Trial1_0,0,4,4,-172.152016,False,52.805
35,0,25-Feb-2018,1,1,1,Sub35_Trial1_0,0,5,5,16.309243,False,52.805
35,0,25-Feb-2018,1,1,1,Sub35_Trial1_0,0,6,6,57.623626,False,52.805
35,0,25-Feb-2018,1,1,1,Sub35_Trial1_1,1,0,0,-15.111725,True,52.805
35,0,25-Feb-2018,1,1,1,Sub35_Trial1_1,1,1,1,-107.882794,True,52.805
35,0,25-Feb-2018,1,1,1,Sub35_Trial1_1,1,2,2,3.445963,True,52.805
35,0,25-Feb-2018,1,1,1,Sub35_Trial1_1,1,3,3,42.53106,True,52.805
35,0,25-Feb-2018,1,1,1,Sub35_Trial1_1,1,4,4,29.431456,True,52.805
35,0,25-Feb-2018,1,1,1,Sub35_Trial1_1,1,5,5,-50.623102,True,52.805
35,0,25-Feb-2018,1,1,1,Sub35_Trial1_1,1,6,6,-150.314361,True,52.805
35,0,25-Feb-2018,1,1,2,Sub35_Trial2_0,0,0,0,116.443246,False,7.685
35,0,25-Feb-2018,1,1,2,Sub35_Trial2_0,0,1,1,-13.01735,False,7.685
35,0,25-Feb-2018,1,1,2,Sub35_Trial2_0,0,2,2,-157.611926,False,7.685
35,0,25-Feb-2018,1,1,2,Sub35_Trial2_0,0,3,3,46.196871,False,7.685
35,0,25-Feb-2018,1,1,2,Sub35_Trial2_0,0,4,4,-101.718151,False,7.685
35,0,25-Feb-2018,1,1,2,Sub35_Trial2_0,0,5,5,-173.640221,False,7.685
35,0,25-Feb-2018,1,1,2,Sub35_Trial2_0,0,6,6,-34.100008,False,7.685
35,0,25-Feb-2018,1,1,2,Sub35_Trial2_1,1,0,0,133.446629,True,7.685
35,0,25-Feb-2018,1,1,2,Sub35_Trial2_1,1,1,1,-24.180231,True,7.685
35,0,25-Feb-2018,1,1,2,Sub35_Trial2_1,1,2,2,-118.906853,True,7.685
35,0,25-Feb-2018,1,1,2,Sub35_Trial2_1,1,3,3,37.008938,True,7.685
35,0,25-Feb-2018,1,1,2,Sub35_Trial2_1,1,4,4,23.846562,True,7.685
35,0,25-Feb-2018,1,1,2,Sub35_Trial2_1,1,5,5,-22.197217,True,7.685
35,0,25-Feb-2018,1,1,2,Sub35_Trial2_1,1,6,6,63.497041,True,7.685
35,0,25-Feb-2018,1,1,3,Sub35_Trial3_0,0,0,0,-64.86404,False,1.444
35,0,25-Feb-2018,1,1,3,Sub35_Trial3_0,0,1,1,40.072397,False,1.444
35,0,25-Feb-2018,1,1,3,Sub35_Trial3_0,0,2,2,73.926308,False,1.444
35,0,25-Feb-2018,1,1,3,Sub35_Trial3_0,0,3,3,-19.914909,False,1.444
35,0,25-Feb-2018,1,1,3,Sub35_Trial3_0,0,4,4,30.316455,False,1.444
35,0,25-Feb-2018,1,1,3,Sub35_Trial3_0,0,5,5,-30.487944,False,1.444
35,0,25-Feb-2018,1,1,3,Sub35_Trial3_0,0,6,6,-33.245417,False,1.444
35,0,25-Feb-2018,1,1,3,Sub35_Trial3_1,1,0,0,84.813657,True,1.444
35,0,25-Feb-2018,1,1,3,Sub35_Trial3_1,1,1,1,4.938723,True,1.444
35,0,25-Feb-2018,1,1,3,Sub35_Trial3_1,1,2,2,-100.89577,True,1.444
35,0,25-Feb-2018,1,1,3,Sub35_Trial3_1,1,3,3,197.326346,True,1.444
35,0,25-Feb-2018,1,1,3,Sub35_Trial3_1,1,4,4,51.880037,True,1.444
35,0,25-Feb-2018,1,1,3,Sub35_Trial3_1,1,5,5,-5.697749,True,1.444
35,0,25-Feb-2018,1,1,3,Sub35_Trial3_1,1,6,6,119.413072,True,1.444
35,0,25-Feb-2018,1,1,4,Sub35_Trial4_0,0,0,0,-56.708988,False,3.897
35,0,25-Feb-2018,1,1,4,Sub35_Trial4_0,0,1,1,-3.675125,False,3.897
35,0,25-Feb-2018,1,1,4,Sub35_Trial4_0,0,2,2,-74.052179,False,3.897
35,0,25-Feb-2018,1,1,4,Sub35_Trial4_0,0,3,3,135.15722,False,3.897
35,0,25-Feb-2018,1,1,4,Sub35_Trial4_0,0,4,4,-58.01309,False,3.897
35,0,25-Feb-2018,1,1,4,Sub35_Trial4_0,0,5,5,85.794999,False,3.897
35,0,25-Feb-2018,1,1,4,Sub35_Trial4_0,0,6,6,-25.541488,False,3.897
35,0,25-Feb-2018,1,1,4,Sub35_Trial4_1,1,0,0,-72.863634,True,3.897
35,0,25-Feb-2018,1,1,4,Sub35_Trial4_1,1,1,1,8.835247,True,3.897
35,0,25-Feb-2018,1,1,4,Sub35_Trial4_1,1,2,2,-145.414109,True,3.897
35,0,25-Feb-2018,1,1,4,Sub35_Trial4_1,1,3,3,150.971096,True,3.897
35,0,25-Feb-2018,1,1,4,Sub35_Trial4_1,1,4,4,65.246383,True,3.897
35,0,25-Feb-2018,1,1,4,Sub35_Trial4_1,1,5,5,23.920705,True,3.897
35,0,25-Feb-2018,1,1,4,Sub35_Trial4_1,1,6,6,89.069659,True,3.897
35,0,25-Feb-2018,1,1,5,Sub35_Trial5_0,0,0,0,-4.296675,False,0.982
35,0,25-Feb-2018,1,1,5,Sub35_Trial5_0,0,1,1,-31.713561,False,0.982
35,0,25-Feb-2018,1,1,5,Sub35_Trial5_0,0,2,2,15.782539,False,0.982
35,0,25-Feb-2018,1,1,5,Sub35_Trial5_0,0,3,3,98.156585,False,0.982
35,0,25-Feb-2018,1,1,5,Sub35_Trial5_0,0,4,4,-63.783939,False,0.982
35,0,25-Feb-2018,1,1,5,Sub35_Trial5_0,0,5,5,2.906307,False,0.982
35,0,25-Feb-2018,1,1,5,Sub35_Trial5_0,0,6,6,-142.046064,False,0.982
35,0,25-Feb-2018,1,1,5,Sub35_Trial5_1,1,0,0,-16.210452,True,0.982
35,0,25-Feb-2018,1,1,5,Sub35_Trial5_1,1,1,1,-38.542262,True,0.982
35,0,25-Feb-2018,1,1,5,Sub35_Trial5_1,1,2,2,-58.393914,True,0.982
35,0,25-Feb-2018,1,1,5,Sub35_Trial5_1,1,3,3,-93.848678,True,0.982
35,0,25-Feb-2018,1,1,5,Sub35_Trial5_1,1,4,4,56.608269,True,0.982
35,0,25-Feb-2018,1,1,5,Sub35_Trial5_1,1,5,5,116.423832,True,0.982
35,0,25-Feb-2018,1,1,5,Sub35_Trial5_1,1,6,6,10.693353,True,0.982
35,0,25-Feb-2018,1,1,6,Sub35_Trial6_0,0,0,0,79.585904,False,1.449
35,0,25-Feb-2018,1,1,6,Sub35_Trial6_0,0,1,1,50.757059,False,1.449
35,0,25-Feb-2018,1,1,6,Sub35_Trial6_0,0,2,2,-17.356437,False,1.449
35,0,25-Feb-2018,1,1,6,Sub35_Trial6_0,0,3,3,-19.554316,False,1.449
35,0,25-Feb-2018,1,1,6,Sub35_Trial6_0,0,4,4,-132.107478,False,1.449
35,0,25-Feb-2018,1,1,6,Sub35_Trial6_0,0,5,5,-3.658115,False,1.449
35,0,25-Feb-2018,1,1,6,Sub35_Trial6_0,0,6,6,-79.975615,False,1.449
35,0,25-Feb-2018,1,1,6,Sub35_Trial6_1,1,0,0,-82.730655,True,1.449
35,0,25-Feb-2018,1,1,6,Sub35_Trial6_1,1,1,1,-36.581236,True,1.449
35,0,25-Feb-2018,1,1,6,Sub35_Trial6_1,1,2,2,-63.615579,True,1.449
35,0,25-Feb-2018,1,1,6,Sub35_Trial6_1,1,3,3,60.532208,True,1.449
35,0,25-Feb-2018,1,1,6,Sub35_Trial6_1,1,4,4,41.664391,True,1.449
35,0,25-Feb-2018,1,1,6,Sub35_Trial6_1,1,5,5,13.58177,True,1.449
35,0,25-Feb-2018,1,1,6,Sub35_Trial6_1,1,6,6,-14.001828,True,1.449
35,0,25-Feb-2018,1,1,7,Sub35_Trial7_0,0,0,0,55.694431,False,3.828
35,0,25-Feb-2018,1,1,7,Sub35_Trial7_0,0,1,1,-70.026112,False,3.828
35,0,25-Feb-2018,1,1,7,Sub35_Trial7_0,0,2,2,32.214191,False,3.828
35,0,25-Feb-2018,1,1,7,Sub35_Trial7_0,0,3,3,43.067593,False,3.828
35,0,25-Feb-2018,1,1,7,Sub35_Trial7_0,0,4,4,-11.112189,False,3.828
35,0,25-Feb-2018,1,1,7,Sub35_Trial7_0,0,5,5,6.582614,False,3.828
35,0,25-Feb-2018,1,1,7,Sub35_Trial7_0,0,6,6,26.538345,False,3.828
35,0,25-Feb-2018,1,1,7,Sub35_Trial7_1,1,0,0,1.036916,True,3.828
35,0,25-Feb-2018,1,1,7,Sub35_Trial7_1,1,1,1,53.999953,True,3.828
35,0,25-Feb-2018,1,1,7,Sub35_Trial7_1,1,2,2,5.271608,True,3.828
35,0,25-Feb-2018,1,1,7,Sub35_Trial7_1,1,3,3,40.449316,True,3.828
35,0,25-Feb-2018,1,1,7,Sub35_Trial7_1,1,4,4,115.155091,True,3.828
35,0,25-Feb-2018,1,1,7,Sub35_Trial7_1,1,5,5,31.815308,True,3.828
35,0,25-Feb-2018,1,1,7,Sub35_Trial7_1,1,6,6,27.712724,True,3.828
35,0,25-Feb-2018,1,1,8,Sub35_Trial8_0,0,0,0,46.42796,False,4.845
35,0,25-Feb-2018,1,1,8,Sub35_Trial8_0,0,1,1,-66.02064,False,4.845
35,0,25-Feb-2018,1,1,8,Sub35_Trial8_0,0,2,2,140.603252,False,4.845
35,0,25-Feb-2018,1,1,8,Sub35_Trial8_0,0,3,3,26.939218,False,4.845
35,0,25-Feb-2018,1,1,8,Sub35_Trial8_0,0,4,4,31.20677,False,4.845
35,0,25-Feb-2018,1,1,8,Sub35_Trial8_0,0,5,5,-130.72779,False,4.845
35,0,25-Feb-2018,1,1,8,Sub35_Trial8_0,0,6,6,-185.825559,False,4.845
35,0,25-Feb-2018,1,1,8,Sub35_Trial8_1,1,0,0,-51.085661,True,4.845
35,0,25-Feb-2018,1,1,8,Sub35_Trial8_1,1,1,1,-18.888982,True,4.845
35,0,25-Feb-2018,1,1,8,Sub35_Trial8_1,1,2,2,25.455472,True,4.845
35,0,25-Feb-2018,1,1,8,Sub35_Trial8_1,1,3,3,50.776305,True,4.845
35,0,25-Feb-2018,1,1,8,Sub35_Trial8_1,1,4,4,76.754733,True,4.845
35,0,25-Feb-2018,1,1,8,Sub35_Trial8_1,1,5,5,-6.737331,True,4.845
35,0,25-Feb-2018,1,1,8,Sub35_Trial8_1,1,6,6,4.325095,True,4.845
35,0,25-Feb-2018,1,1,9,Sub35_Trial9_0,0,0,0,-66.721562,True,3.078
35,0,25-Feb-2018,1,1,9,Sub35_Trial9_0,0,1,1,-74.146299,True,3.078
35,0,25-Feb-2018,1,1,9,Sub35_Trial9_0,0,2,2,75.220205,True,3.078
35,0,25-Feb-2018,1,1,9,Sub35_Trial9_0,0,3,3,81.682128,True,3.078
35,0,25-Feb-2018,1,1,9,Sub35_Trial9_0,0,4,4,67.952666,True,3.078
35,0,25-Feb-2018,1,1,9,Sub35_Trial9_0,0,5,5,10.868866,True,3.078
35,0,25-Feb-2018,1,1,9,Sub35_Trial9_0,0,6,6,38.0373,True,3.078
35,0,25-Feb-2018,1,1,9,Sub35_Trial9_1,1,0,0,-38.158539,False,3.078
35,0,25-Feb-2018,1,1,9,Sub35_Trial9_1,1,1,1,116.575561,False,3.078
35,0,25-Feb-2018,1,1,9,Sub35_Trial9_1,1,2,2,157.763839,False,3.078
35,0,25-Feb-2018,1,1,9,Sub35_Trial9_1,1,3,3,-14.034543,False,3.078
35,0,25-Feb-2018,1,1,9,Sub35_Trial9_1,1,4,4,42.989167,False,3.078
35,0,25-Feb-2018,1,1,9,Sub35_Trial9_1,1,5,5,67.413859,False,3.078
35,0,25-Feb-2018,1,1,9,Sub35_Trial9_1,1,6,6,28.368912,False,3.078
35,0,25-Feb-2018,1,1,10,Sub35_Trial10_0,0,0,0,65.181682,True,14.059
35,0,25-Feb-2018,1,1,10,Sub35_Trial10_0,0,1,1,-127.195559,True,14.059
35,0,25-Feb-2018,1,1,10,Sub35_Trial10_0,0,2,2,-30.148017,True,14.059
35,0,25-Feb-2018,1,1,10,Sub35_Trial10_0,0,3,3,-51.099184,True,14.059
35,0,25-Feb-2018,1,1,10,Sub35_Trial10_0,0,4,4,98.937176,True,14.059
35,0,25-Feb-2018,1,1,10,Sub35_Trial10_0,0,5,5,-8.648231,True,14.059
35,0,25-Feb-2018,1,1,10,Sub35_Trial10_0,0,6,6,30.548113,True,14.059
35,0,25-Feb-2018,1,1,10,Sub35_Trial10_1,1,0,0,-93.074149,False,14.059
35,0,25-Feb-2018,1,1,10,Sub35_Trial10_1,1,1,1,29.683975,False,14.059
35,0,25-Feb-2018,1,1,10,Sub35_Trial10_1,1,2,2,-95.820361,False,14.059
35,0,25-Feb-2018,1,1,10,Sub35_Trial10_1,1,3,3,31.927723,False,14.059
35,0,25-Feb-2018,1,1,10,Sub35_Trial10_1,1,4,4,-59.520052,False,14.059
35,0,25-Feb-2018,1,1,10,Sub35_Trial10_1,1,5,5,-30.356245,False,14.059
35,0,25-Feb-2018,1,1,10,Sub35_Trial10_1,1,6,6,65.189181,False,14.059
35,0,25-Feb-2018,1,1,11,Sub35_Trial11_0,0,0,0,-64.821667,True,2.878
35,0,25-Feb-2018,1,1,11,Sub35_Trial11_0,0,1,1,69.141707,True,2.878
35,0,25-Feb-2018,1,1,11,Sub35_Trial11_0,0,2,2,81.33039,True,2.878
35,0,25-Feb-2018,1,1,11,Sub35_Trial11_0,0,3,3,-19.45345,True,2.878
35,0,25-Feb-2018,1,1,11,Sub35_Trial11_0,0,4,4,-120.748717,True,2.878
35,0,25-Feb-2018,1,1,11,Sub35_Trial11_0,0,5,5,96.980906,True,2.878
35,0,25-Feb-2018,1,1,11,Sub35_Trial11_0,0,6,6,29.376601,True,2.878
35,0,25-Feb-2018,1,1,11,Sub35_Trial11_1,1,0,0,-54.245092,False,2.878
35,0,25-Feb-2018,1,1,11,Sub35_Trial11_1,1,1,1,-61.183542,False,2.878
35,0,25-Feb-2018,1,1,11,Sub35_Trial11_1,1,2,2,66.551275,False,2.878
35,0,25-Feb-2018,1,1,11,Sub35_Trial11_1,1,3,3,53.460282,False,2.878
35,0,25-Feb-2018,1,1,11,Sub35_Trial11_1,1,4,4,-67.270985,False,2.878
35,0,25-Feb-2018,1,1,11,Sub35_Trial11_1,1,5,5,-42.320406,False,2.878
35,0,25-Feb-2018,1,1,11,Sub35_Trial11_1,1,6,6,-66.963576,False,2.878
35,0,25-Feb-2018,1,1,12,Sub35_Trial12_0,0,0,0,55.837198,False,1.38
35,0,25-Feb-2018,1,1,12,Sub35_Trial12_0,0,1,1,-30.982489,False,1.38
35,0,25-Feb-2018,1,1,12,Sub35_Trial12_0,0,2,2,-35.56989,False,1.38
35,0,25-Feb-2018,1,1,12,Sub35_Trial12_0,0,3,3,108.532048,False,1.38
35,0,25-Feb-2018,1,1,12,Sub35_Trial12_0,0,4,4,-101.265556,False,1.38
35,0,25-Feb-2018,1,1,12,Sub35_Trial12_0,0,5,5,-34.744325,False,1.38
35,0,25-Feb-2018,1,1,12,Sub35_Trial12_0,0,6,6,16.764796,False,1.38
35,0,25-Feb-2018,1,1,12,Sub35_Trial12_1,1,0,0,58.201865,True,1.38
35,0,25-Feb-2018,1,1,12,Sub35_Trial12_1,1,1,1,-39.270003,True,1.38
35,0,25-Feb-2018,1,1,12,Sub35_Trial12_1,1,2,2,14.319841,True,1.38
35,0,25-Feb-2018,1,1,12,Sub35_Trial12_1,1,3,3,-174.687004,True,1.38
35,0,25-Feb-2018,1,1,12,Sub35_Trial12_1,1,4,4,8.222895,True,1.38
35,0,25-Feb-2018,1,1,12,Sub35_Trial12_1,1,5,5,-15.571145,True,1.38
35,0,25-Feb-2018,1,1,12,Sub35_Trial12_1,1,6,6,21.107481,True,1.38
35,0,25-Feb-2018,1,1,13,Sub35_Trial13_0,0,0,0,-32.424437,False,2.673
35,0,25-Feb-2018,1,1,13,Sub35_Trial13_0,0,1,1,-45.576855,False,2.673
35,0,25-Feb-2018,1,1,13,Sub35_Trial13_0,0,2,2,17.348399,False,2.673
35,0,25-Feb-2018,1,1,13,Sub35_Trial13_0,0,3,3,-159.488587,False,2.673
35,0,25-Feb-2018,1,1,13,Sub35_Trial13_0,0,4,4,30.679372,False,2.673
35,0,25-Feb-2018,1,1,13,Sub35_Trial13_0,0,5,5,43.539814,False,2.673
35,0,25-Feb-2018,1,1,13,Sub35_Trial13_0,0,6,6,-47.501759,False,2.673
35,0,25-Feb-2018,1,1,13,Sub35_Trial13_1,1,0,0,10.588492,True,2.673
35,0,25-Feb-2018,1,1,13,Sub35_Trial13_1,1,1,1,-33.297987,True,2.673
35,0,25-Feb-2018,1,1,13,Sub35_Trial13_1,1,2,2,-36.711414,True,2.673
35,0,25-Feb-2018,1,1,13,Sub35_Trial13_1,1,3,3,-88.613089,True,2.673
35,0,25-Feb-2018,1,1,13,Sub35_Trial13_1,1,4,4,-77.591812,True,2.673
35,0,25-Feb-2018,1,1,13,Sub35_Trial13_1,1,5,5,-43.504615,True,2.673
35,0,25-Feb-2018,1,1,13,Sub35_Trial13_1,1,6,6,-4.36985,True,2.673
35,0,25-Feb-2018,1,1,14,Sub35_Trial14_0,0,0,0,53.084166,True,1.139
35,0,25-Feb-2018,1,1,14,Sub35_Trial14_0,0,1,1,76.312222,True,1.139
35,0,25-Feb-2018,1,1,14,Sub35_Trial14_0,0,2,2,196.435617,True,1.139
35,0,25-Feb-2018,1,1,14,Sub35_Trial14_0,0,3,3,99.617014,True,1.139
35,0,25-Feb-2018,1,1,14,Sub35_Trial14_0,0,4,4,6.319608,True,1.139
35,0,25-Feb-2018,1,1,14,Sub35_Trial14_0,0,5,5,1.725232,True,1.139
35,0,25-Feb-2018,1,1,14,Sub35_Trial14_0,0,6,6,-50.533317,True,1.139
35,0,25-Feb-2018,1,1,14,Sub35_Trial14_1,1,0,0,4.796649,False,1.139
35,0,25-Feb-2018,1,1,14,Sub35_Trial14_1,1,1,1,-110.522795,False,1.139
35,0,25-Feb-2018,1,1,14,Sub35_Trial14_1,1,2,2,112.224407,False,1.139
35,0,25-Feb-2018,1,1,14,Sub35_Trial14_1,1,3,3,6.297798,False,1.139
35,0,25-Feb-2018,1,1,14,Sub35_Trial14_1,1,4,4,22.969556,False,1.139
35,0,25-Feb-2018,1,1,14,Sub35_Trial14_1,1,5,5,-60.272296,False,1.139
35,0,25-Feb-2018,1,1,14,Sub35_Trial14_1,1,6,6,20.40734,False,1.139
35,0,25-Feb-2018,1,1,15,Sub35_Trial15_0,0,0,0,-39.931174,False,0.882
35,0,25-Feb-2018,1,1,15,Sub35_Trial15_0,0,1,1,-64.326735,False,0.882
35,0,25-Feb-2018,1,1,15,Sub35_Trial15_0,0,2,2,66.613175,False,0.882
35,0,25-Feb-2018,1,1,15,Sub35_Trial15_0,0,3,3,-50.19746,False,0.882
35,0,25-Feb-2018,1,1,15,Sub35_Trial15_0,0,4,4,105.313803,False,0.882
35,0,25-Feb-2018,1,1,15,Sub35_Trial15_0,0,5,5,-41.552023,False,0.882
35,0,25-Feb-2018,1,1,15,Sub35_Trial15_0,0,6,6,-82.417049,False,0.882
35,0,25-Feb-2018,1,1,15,Sub35_Trial15_1,1,0,0,117.808502,True,0.882
35,0,25-Feb-2018,1,1,15,Sub35_Trial15_1,1,1,1,139.757569,True,0.882
35,0,25-Feb-2018,1,1,15,Sub35_Trial15_1,1,2,2,-2.051375,True,0.882
35,0,25-Feb-2018,1,1,15,Sub35_Trial15_1,1,3,3,140.265502,True,0.882
35,0,25-Feb-2018,1,1,15,Sub35_Trial15_1,1,4,4,-7.596559,True,0.882
35,0,25-Feb-2018,1,1,15,Sub35_Trial15_1,1,5,5,171.226449,True,0.882
35,0,25-Feb-2018,1,1,15,Sub35_Trial15_1,1,6,6,-48.084434,True,0.882
35,0,25-Feb-2018,1,1,16,Sub35_Trial16_0,0,0,0,49.63267,False,2.408
35,0,25-Feb-2018,1,1,16,Sub35_Trial16_0,0,1,1,-27.423908,False,2.408
35,0,25-Feb-2018,1,1,16,Sub35_Trial16_0,0,2,2,92.160886,False,2.408
35,0,25-Feb-2018,1,1,16,Sub35_Trial16_0,0,3,3,23.915933,False,2.408
35,0,25-Feb-2018,1,1,16,Sub35_Trial16_0,0,4,4,92.894514,False,2.408
35,0,25-Feb-2018,1,1,16,Sub35_Trial16_0,0,5,5,-6.287235,False,2.408
35,0,25-Feb-2018,1,1,16,Sub35_Trial16_0,0,6,6,-25.731222,False,2.408
35,0,25-Feb-2018,1,1,16,Sub35_Trial16_1,1,0,0,19.318349,True,2.408
35,0,25-Feb-2018,1,1,16,Sub35_Trial16_1,1,1,1,-57.29746,True,2.408
35,0,25-Feb-2018,1,1,16,Sub35_Trial16_1,1,2,2,89.46352,True,2.408
35,0,25-Feb-2018,1,1,16,Sub35_Trial16_1,1,3,3,-171.247054,True,2.408
35,0,25-Feb-2018,1,1,16,Sub35_Trial16_1,1,4,4,84.797661,True,2.408
35,0,25-Feb-2018,1,1,16,Sub35_Trial16_1,1,5,5,97.267272,True,2.408
35,0,25-Feb-2018,1,1,16,Sub35_Trial16_1,1,6,6,-108.363592,True,2.408
35,0,25-Feb-2018,1,1,17,Sub35_Trial17_0,0,0,0,109.071699,False,0.732
35,0,25-Feb-2018,1,1,17,Sub35_Trial17_0,0,1,1,-68.404222,False,0.732
35,0,25-Feb-2018,1,1,17,Sub35_Trial17_0,0,2,2,-51.303022,False,0.732
35,0,25-Feb-2018,1,1,17,Sub35_Trial17_0,0,3,3,92.38514,False,0.732
35,0,25-Feb-2018,1,1,17,Sub35_Trial17_0,0,4,4,-74.077035,False,0.732
35,0,25-Feb-2018,1,1,17,Sub35_Trial17_0,0,5,5,-70.279912,False,0.732
35,0,25-Feb-2018,1,1,17,Sub35_Trial17_0,0,6,6,-86.811954,False,0.732
35,0,25-Feb-2018,1,1,17,Sub35_Trial17_1,1,0,0,60.055912,True,0.732
35,0,25-Feb-2018,1,1,17,Sub35_Trial17_1,1,1,1,-145.098934,True,0.732
35,0,25-Feb-2018,1,1,17,Sub35_Trial17_1,1,2,2,-77.879892,True,0.732
35,0,25-Feb-2018,1,1,17,Sub35_Trial17_1,1,3,3,11.308591,True,0.732
35,0,25-Feb-2018,1,1,17,Sub35_Trial17_1,1,4,4,-27.581639,True,0.732
35,0,25-Feb-2018,1,1,17,Sub35_Trial17_1,1,5,5,107.924566,True,0.732
35,0,25-Feb-2018,1,1,17,Sub35_Trial17_1,1,6,6,144.481703,True,0.732
35,0,25-Feb-2018,1,1,18,Sub35_Trial18_0,0,0,0,-53.776076,True,1.155
35,0,25-Feb-2018,1,1,18,Sub35_Trial18_0,0,1,1,11.047831,True,1.155
35,0,25-Feb-2018,1,1,18,Sub35_Trial18_0,0,2,2,20.597827,True,1.155
35,0,25-Feb-2018,1,1,18,Sub35_Trial18_0,0,3,3,117.484486,True,1.155
35,0,25-Feb-2018,1,1,18,Sub35_Trial18_0,0,4,4,-53.656489,True,1.155
35,0,25-Feb-2018,1,1,18,Sub35_Trial18_0,0,5,5,79.724201,True,1.155
35,0,25-Feb-2018,1,1,18,Sub35_Trial18_0,0,6,6,7.5449,True,1.155
35,0,25-Feb-2018,1,1,18,Sub35_Trial18_1,1,0,0,24.650275,False,1.155
35,0,25-Feb-2018,1,1,18,Sub35_Trial18_1,1,1,1,-96.418177,False,1.155
35,0,25-Feb-2018,1,1,18,Sub35_Trial18_1,1,2,2,-13.936525,False,1.155
35,0,25-Feb-2018,1,1,18,Sub35_Trial18_1,1,3,3,-87.626173,False,1.155
35,0,25-Feb-2018,1,1,18,Sub35_Trial18_1,1,4,4,14.0166,False,1.155
35,0,25-Feb-2018,1,1,18,Sub35_Trial18_1,1,5,5,-86.825761,False,1.155
35,0,25-Feb-2018,1,1,18,Sub35_Trial18_1,1,6,6,-31.750144,False,1.155
35,0,25-Feb-2018,1,1,19,Sub35_Trial19_0,0,0,0,112.45895,False,0.51
35,0,25-Feb-2018,1,1,19,Sub35_Trial19_0,0,1,1,61.647763,False,0.51
35,0,25-Feb-2018,1,1,19,Sub35_Trial19_0,0,2,2,-44.301805,False,0.51
35,0,25-Feb-2018,1,1,19,Sub35_Trial19_0,0,3,3,-2.346105,False,0.51
35,0,25-Feb-2018,1,1,19,Sub35_Trial19_0,0,4,4,-98.241141,False,0.51
35,0,25-Feb-2018,1,1,19,Sub35_Trial19_0,0,5,5,-48.961967,False,0.51
35,0,25-Feb-2018,1,1,19,Sub35_Trial19_0,0,6,6,49.682705,False,0.51
35,0,25-Feb-2018,1,1,19,Sub35_Trial19_1,1,0,0,-16.915787,True,0.51
35,0,25-Feb-2018,1,1,19,Sub35_Trial19_1,1,1,1,-107.769232,True,0.51
35,0,25-Feb-2018,1,1,19,Sub35_Trial19_1,1,2,2,-34.236936,True,0.51
35,0,25-Feb-2018,1,1,19,Sub35_Trial19_1,1,3,3,75.766322,True,0.51
35,0,25-Feb-2018,1,1,19,Sub35_Trial19_1,1,4,4,130.633572,True,0.51
35,0,25-Feb-2018,1,1,19,Sub35_Trial19_1,1,5,5,42.400344,True,0.51
35,0,25-Feb-2018,1,1,19,Sub35_Trial19_1,1,6,6,-56.400277,True,0.51
35,0,25-Feb-2018,1,1,20,Sub35_Trial20_0,0,0,0,31.13167,True,0.986
35,0,25-Feb-2018,1,1,20,Sub35_Trial20_0,0,1,1,-120.327659,True,0.986
35,0,25-Feb-2018,1,1,20,Sub35_Trial20_0,0,2,2,-95.700333,True,0.986
35,0,25-Feb-2018,1,1,20,Sub35_Trial20_0,0,3,3,122.712551,True,0.986
35,0,25-Feb-2018,1,1,20,Sub35_Trial20_0,0,4,4,84.504305,True,0.986
35,0,25-Feb-2018,1,1,20,Sub35_Trial20_0,0,5,5,112.926187,True,0.986
35,0,25-Feb-2018,1,1,20,Sub35_Trial20_0,0,6,6,-99.633367,True,0.986
35,0,25-Feb-2018,1,1,20,Sub35_Trial20_1,1,0,0,-13.03828,False,0.986
35,0,25-Feb-2018,1,1,20,Sub35_Trial20_1,1,1,1,69.503404,False,0.986
35,0,25-Feb-2018,1,1,20,Sub35_Trial20_1,1,2,2,-52.620179,False,0.986
35,0,25-Feb-2018,1,1,20,Sub35_Trial20_1,1,3,3,-61.479931,False,0.986
35,0,25-Feb-2018,1,1,20,Sub35_Trial20_1,1,4,4,-108.918906,False,0.986
35,0,25-Feb-2018,1,1,20,Sub35_Trial20_1,1,5,5,-33.920153,False,0.986
35,0,25-Feb-2018,1,1,20,Sub35_Trial20_1,1,6,6,-162.001934,False,0.986
35,0,25-Feb-2018,1,1,21,Sub35_Trial21_0,0,0,0,-56.311766,True,2.481
35,0,25-Feb-2018,1,1,21,Sub35_Trial21_0,0,1,1,-98.02427,True,2.481
35,0,25-Feb-2018,1,1,21,Sub35_Trial21_0,0,2,2,90.37447,True,2.481
35,0,25-Feb-2018,1,1,21,Sub35_Trial21_0,0,3,3,12.296021,True,2.481
35,0,25-Feb-2018,1,1,21,Sub35_Trial21_0,0,4,4,65.549703,True,2.481
35,0,25-Feb-2018,1,1,21,Sub35_Trial21_0,0,5,5,110.393115,True,2.481
35,0,25-Feb-2018,1,1,21,Sub35_Trial21_0,0,6,6,26.42049,True,2.481
35,0,25-Feb-2018,1,1,21,Sub35_Trial21_1,1,0,0,-53.273656,False,2.481
35,0,25-Feb-2018,1,1,21,Sub35_Trial21_1,1,1,1,25.928324,False,2.481
35,0,25-Feb-2018,1,1,21,Sub35_Trial21_1,1,2,2,9.674018,False,2.481
35,0,25-Feb-2018,1,1,21,Sub35_Trial21_1,1,3,3,-127.579928,False,2.481
35,0,25-Feb-2018,1,1,21,Sub35_Trial21_1,1,4,4,-15.287077,False,2.481
35,0,25-Feb-2018,1,1,21,Sub35_Trial21_1,1,5,5,94.598159,False,2.481
35,0,25-Feb-2018,1,1,21,Sub35_Trial21_1,1,6,6,119.34142,False,2.481
35,0,25-Feb-2018,1,1,22,Sub35_Trial22_0,0,0,0,-8.423744,True,2.893
35,0,25-Feb-2018,1,1,22,Sub35_Trial22_0,0,1,1,-29.987475,True,2.893
35,0,25-Feb-2018,1,1,22,Sub35_Trial22_0,0,2,2,99.246326,True,2.893
35,0,25-Feb-2018,1,1,22,Sub35_Trial22_0,0,3,3,-40.427821,True,2.893
35,0,25-Feb-2018,1,1,22,Sub35_Trial22_0,0,4,4,100.248459,True,2.893
35,0,25-Feb-2018,1,1,22,Sub35_Trial22_0,0,5,5,114.407519,True,2.893
35,0,25-Feb-2018,1,1,22,Sub35_Trial22_0,0,6,6,-4.918256,True,2.893
35,0,25-Feb-2018,1,1,22,Sub35_Trial22_1,1,0,0,-86.532135,False,2.893
35,0,25-Feb-2018,1,1,22,Sub35_Trial22_1,1,1,1,103.288216,False,2.893
35,0,25-Feb-2018,1,1,22,Sub35_Trial22_1,1,2,2,-47.526997,False,2.893
35,0,25-Feb-2018,1,1,22,Sub35_Trial22_1,1,3,3,64.543745,False,2.893
35,0,25-Feb-2018,1,1,22,Sub35_Trial22_1,1,4,4,65.154116,False,2.893
35,0,25-Feb-2018,1,1,22,Sub35_Trial22_1,1,5,5,78.373284,False,2.893
35,0,25-Feb-2018,1,1,22,Sub35_Trial22_1,1,6,6,16.845015,False,2.893
35,0,25-Feb-2018,1,1,23,Sub35_Trial23_0,0,0,0,6.936012,False,0.902
35,0,25-Feb-2018,1,1,23,Sub35_Trial23_0,0,1,1,46.010594,False,0.902
35,0,25-Feb-2018,1,1,23,Sub35_Trial23_0,0,2,2,-79.204497,False,0.902
35,0,25-Feb-2018,1,1,23,Sub35_Trial23_0,0,3,3,-73.482877,False,0.902
35,0,25-Feb-2018,1,1,23,Sub35_Trial23_0,0,4,4,-72.355897,False,0.902
35,0,25-Feb-2018,1,1,23,Sub35_Trial23_0,0,5,5,-182.104637,False,0.902
35,0,25-Feb-2018,1,1,23,Sub35_Trial23_0,0,6,6,-58.254178,False,0.902
35,0,25-Feb-2018,1,1,23,Sub35_Trial23_1,1,0,0,-159.241364,True,0.902
35,0,25-Feb-2018,1,1,23,Sub35_Trial23_1,1,1,1,-70.561337,True,0.902
35,0,25-Feb-2018,1,1,23,Sub35_Trial23_1,1,2,2,-7.039546,True,0.902
35,0,25-Feb-2018,1,1,23,Sub35_Trial23_1,1,3,3,34.303253,True,0.902
35,0,25-Feb-2018,1,1,23,Sub35_Trial23_1,1,4,4,113.525471,True,0.902
35,0,25-Feb-2018,1,1,23,Sub35_Trial23_1,1,5,5,55.459194,True,0.902
35,0,25-Feb-2018,1,1,23,Sub35_Trial23_1,1,6,6,132.229489,True,0.902
35,0,25-Feb-2018,1,1,24,Sub35_Trial24_0,0,0,0,156.173346,False,2.315
35,0,25-Feb-2018,1,1,24,Sub35_Trial24_0,0,1,1,-32.391626,False,2.315
35,0,25-Feb-2018,1,1,24,Sub35_Trial24_0,0,2,2,-133.986958,False,2.315
35,0,25-Feb-2018,1,1,24,Sub35_Trial24_0,0,3,3,-160.137194,False,2.315
35,0,25-Feb-2018,1,1,24,Sub35_Trial24_0,0,4,4,-84.865401,False,2.315
35,0,25-Feb-2018,1,1,24,Sub35_Trial24_0,0,5,5,62.854316,False,2.315
35,0,25-Feb-2018,1,1,24,Sub35_Trial24_0,0,6,6,85.292762,False,2.315
35,0,25-Feb-2018,1,1,24,Sub35_Trial24_1,1,0,0,-153.460261,True,2.315
35,0,25-Feb-2018,1,1,24,Sub35_Trial24_1,1,1,1,-3.806266,True,2.315
35,0,25-Feb-2018,1,1,24,Sub35_Trial24_1,1,2,2,76.945666,True,2.315
35,0,25-Feb-2018,1,1,24,Sub35_Trial24_1,1,3,3,-28.278005,True,2.315
35,0,25-Feb-2018,1,1,24,Sub35_Trial24_1,1,4,4,36.819624,True,2.315
35,0,25-Feb-2018,1,1,24,Sub35_Trial24_1,1,5,5,102.776455,True,2.315
35,0,25-Feb-2018,1,1,24,Sub35_Trial24_1,1,6,6,-13.135668,True,2.315
35,0,25-Feb-2018,1,1,25,Sub35_Trial25_0,0,0,0,29.737234,False,1.354
35,0,25-Feb-2018,1,1,25,Sub35_Trial25_0,0,1,1,-58.691432,False,1.354
35,0,25-Feb-2018,1,1,25,Sub35_Trial25_0,0,2,2,-27.379549,False,1.354
35,0,25-Feb-2018,1,1,25,Sub35_Trial25_0,0,3,3,76.332799,False,1.354
35,0,25-Feb-2018,1,1,25,Sub35_Trial25_0,0,4,4,-143.450448,False,1.354
35,0,25-Feb-2018,1,1,25,Sub35_Trial25_0,0,5,5,-39.317873,False,1.354
35,0,25-Feb-2018,1,1,25,Sub35_Trial25_0,0,6,6,126.306268,False,1.354
35,0,25-Feb-2018,1,1,25,Sub35_Trial25_1,1,0,0,-135.03409,True,1.354
35,0,25-Feb-2018,1,1,25,Sub35_Trial25_1,1,1,1,-99.105556,True,1.354
35,0,25-Feb-2018,1,1,25,Sub35_Trial25_1,1,2,2,52.296628,True,1.354
35,0,25-Feb-2018,1,1,25,Sub35_Trial25_1,1,3,3,-10.869511,True,1.354
35,0,25-Feb-2018,1,1,25,Sub35_Trial25_1,1,4,4,140.218355,True,1.354
35,0,25-Feb-2018,1,1,25,Sub35_Trial25_1,1,5,5,34.703663,True,1.354
35,0,25-Feb-2018,1,1,25,Sub35_Trial25_1,1,6,6,-53.656268,True,1.354
35,0,25-Feb-2018,1,1,26,Sub35_Trial26_0,0,0,0,14.716182,True,2.936
35,0,25-Feb-2018,1,1,26,Sub35_Trial26_0,0,1,1,117.196798,True,2.936
35,0,25-Feb-2018,1,1,26,Sub35_Trial26_0,0,2,2,25.888336,True,2.936
35,0,25-Feb-2018,1,1,26,Sub35_Trial26_0,0,3,3,108.760109,True,2.936
35,0,25-Feb-2018,1,1,26,Sub35_Trial26_0,0,4,4,1.136756,True,2.936
35,0,25-Feb-2018,1,1,26,Sub35_Trial26_0,0,5,5,-71.267608,True,2.936
35,0,25-Feb-2018,1,1,26,Sub35_Trial26_0,0,6,6,147.165338,True,2.936
35,0,25-Feb-2018,1,1,26,Sub35_Trial26_1,1,0,0,3.623068,False,2.936
35,0,25-Feb-2018,1,1,26,Sub35_Trial26_1,1,1,1,-62.120176,False,2.936
35,0,25-Feb-2018,1,1,26,Sub35_Trial26_1,1,2,2,49.827768,False,2.936
35,0,25-Feb-2018,1,1,26,Sub35_Trial26_1,1,3,3,-60.781202,False,2.936
35,0,25-Feb-2018,1,1,26,Sub35_Trial26_1,1,4,4,139.991015,False,2.936
35,0,25-Feb-2018,1,1,26,Sub35_Trial26_1,1,5,5,-52.551507,False,2.936
35,0,25-Feb-2018,1,1,26,Sub35_Trial26_1,1,6,6,-133.372927,False,2.936
35,0,25-Feb-2018,1,1,27,Sub35_Trial27_0,0,0,0,-125.884778,False,3.596
35,0,25-Feb-2018,1,1,27,Sub35_Trial27_0,0,1,1,-44.836444,False,3.596
35,0,25-Feb-2018,1,1,27,Sub35_Trial27_0,0,2,2,-20.233792,False,3.596
35,0,25-Feb-2018,1,1,27,Sub35_Trial27_0,0,3,3,-66.896968,False,3.596
35,0,25-Feb-2018,1,1,27,Sub35_Trial27_0,0,4,4,-76.040294,False,3.596
35,0,25-Feb-2018,1,1,27,Sub35_Trial27_0,0,5,5,-87.845432,False,3.596
35,0,25-Feb-2018,1,1,27,Sub35_Trial27_0,0,6,6,23.242029,False,3.596
35,0,25-Feb-2018,1,1,27,Sub35_Trial27_1,1,0,0,16.425294,True,3.596
35,0,25-Feb-2018,1,1,27,Sub35_Trial27_1,1,1,1,-168.769094,True,3.596
35,0,25-Feb-2018,1,1,27,Sub35_Trial27_1,1,2,2,-123.50649,True,3.596
35,0,25-Feb-2018,1,1,27,Sub35_Trial27_1,1,3,3,-37.005443,True,3.596
35,0,25-Feb-2018,1,1,27,Sub35_Trial27_1,1,4,4,35.111925,True,3.596
35,0,25-Feb-2018,1,1,27,Sub35_Trial27_1,1,5,5,-153.701781,True,3.596
35,0,25-Feb-2018,1,1,27,Sub35_Trial27_1,1,6,6,-58.604346,True,3.596
35,0,25-Feb-2018,1,1,28,Sub35_Trial28_0,0,0,0,21.819222,False,0.799
35,0,25-Feb-2018,1,1,28,Sub35_Trial28_0,0,1,1,-26.446969,False,0.799
35,0,25-Feb-2018,1,1,28,Sub35_Trial28_0,0,2,2,84.176126,False,0.799
35,0,25-Feb-2018,1,1,28,Sub35_Trial28_0,0,3,3,-20.665078,False,0.799
35,0,25-Feb-2018,1,1,28,Sub35_Trial28_0,0,4,4,-68.949147,False,0.799
35,0,25-Feb-2018,1,1,28,Sub35_Trial28_0,0,5,5,-35.909867,False,0.799
35,0,25-Feb-2018,1,1,28,Sub35_Trial28_0,0,6,6,-120.386842,False,0.799
35,0,25-Feb-2018,1,1,28,Sub35_Trial28_1,1,0,0,-67.483381,True,0.799
35,0,25-Feb-2018,1,1,28,Sub35_Trial28_1,1,1,1,-61.438447,True,0.799
35,0,25-Feb-2018,1,1,28,Sub35_Trial28_1,1,2,2,84.421194,True,0.799
35,0,25-Feb-2018,1,1,28,Sub35_Trial28_1,1,3,3,-122.479396,True,0.799
35,0,25-Feb-2018,1,1,28,Sub35_Trial28_1,1,4,4,24.420775,True,0.799
35,0,25-Feb-2018,1,1,28,Sub35_Trial28_1,1,5,5,46.584152,True,0.799
35,0,25-Feb-2018,1,1,28,Sub35_Trial28_1,1,6,6,-50.585737,True,0.799
35,0,25-Feb-2018,1,1,29,Sub35_Trial29_0,0,0,0,43.925661,True,0.871
35,0,25-Feb-2018,1,1,29,Sub35_Trial29_0,0,1,1,86.046739,True,0.871
35,0,25-Feb-2018,1,1,29,Sub35_Trial29_0,0,2,2,119.118094,True,0.871
35,0,25-Feb-2018,1,1,29,Sub35_Trial29_0,0,3,3,115.095677,True,0.871
35,0,25-Feb-2018,1,1,29,Sub35_Trial29_0,0,4,4,20.80792,True,0.871
35,0,25-Feb-2018,1,1,29,Sub35_Trial29_0,0,5,5,-106.602515,True,0.871
35,0,25-Feb-2018,1,1,29,Sub35_Trial29_0,0,6,6,-31.451622,True,0.871
35,0,25-Feb-2018,1,1,29,Sub35_Trial29_1,1,0,0,31.7786,False,0.871
35,0,25-Feb-2018,1,1,29,Sub35_Trial29_1,1,1,1,-54.946294,False,0.871
35,0,25-Feb-2018,1,1,29,Sub35_Trial29_1,1,2,2,-75.84872,False,0.871
35,0,25-Feb-2018,1,1,29,Sub35_Trial29_1,1,3,3,-75.339434,False,0.871
35,0,25-Feb-2018,1,1,29,Sub35_Trial29_1,1,4,4,-44.041722,False,0.871
35,0,25-Feb-2018,1,1,29,Sub35_Trial29_1,1,5,5,-84.595448,False,0.871
35,0,25-Feb-2018,1,1,29,Sub35_Trial29_1,1,6,6,-1.008601,False,0.871
35,0,25-Feb-2018,1,1,30,Sub35_Trial30_0,0,0,0,1.670971,True,1.174
35,0,25-Feb-2018,1,1,30,Sub35_Trial30_0,0,1,1,-17.074552,True,1.174
35,0,25-Feb-2018,1,1,30,Sub35_Trial30_0,0,2,2,-24.671711,True,1.174
35,0,25-Feb-2018,1,1,30,Sub35_Trial30_0,0,3,3,73.490057,True,1.174
35,0,25-Feb-2018,1,1,30,Sub35_Trial30_0,0,4,4,116.950972,True,1.174
35,0,25-Feb-2018,1,1,30,Sub35_Trial30_0,0,5,5,60.950712,True,1.174
35,0,25-Feb-2018,1,1,30,Sub35_Trial30_0,0,6,6,9.008514,True,1.174
35,0,25-Feb-2018,1,1,30,Sub35_Trial30_1,1,0,0,145.09572,False,1.174
35,0,25-Feb-2018,1,1,30,Sub35_Trial30_1,1,1,1,-110.729027,False,1.174
35,0,25-Feb-2018,1,1,30,Sub35_Trial30_1,1,2,2,-106.610898,False,1.174
35,0,25-Feb-2018,1,1,30,Sub35_Trial30_1,1,3,3,116.690381,False,1.174
35,0,25-Feb-2018,1,1,30,Sub35_Trial30_1,1,4,4,-42.265506,False,1.174
35,0,25-Feb-2018,1,1,30,Sub35_Trial30_1,1,5,5,-110.544536,False,1.174
35,0,25-Feb-2018,1,1,30,Sub35_Trial30_1,1,6,6,67.606972,False,1.174
35,0,25-Feb-2018,1,1,31,Sub35_Trial31_0,0,0,0,-104.964597,True,2.49
35,0,25-Feb-2018,1,1,31,Sub35_Trial31_0,0,1,1,-2.174905,True,2.49
35,0,25-Feb-2018,1,1,31,Sub35_Trial31_0,0,2,2,29.527887,True,2.49
35,0,25-Feb-2018,1,1,31,Sub35_Trial31_0,0,3,3,32.739056,True,2.49
35,0,25-Feb-2018,1,1,31,Sub35_Trial31_0,0,4,4,79.481271,True,2.49
35,0,25-Feb-2018,1,1,31,Sub35_Trial31_0,0,5,5,78.214416,True,2.49
35,0,25-Feb-2018,1,1,31,Sub35_Trial31_0,0,6,6,-52.859108,True,2.49
35,0,25-Feb-2018,1,1,31,Sub35_Trial31_1,1,0,0,85.714541,False,2.49
35,0,25-Feb-2018,1,1,31,Sub35_Trial31_1,1,1,1,-3.642627,False,2.49
35,0,25-Feb-2018,1,1,31,Sub35_Trial31_1,1,2,2,25.873007,False,2.49
35,0,25-Feb-2018,1,1,31,Sub35_Trial31_1,1,3,3,37.491672,False,2.49
35,0,25-Feb-2018,1,1,31,Sub35_Trial31_1,1,4,4,6.515746,False,2.49
35,0,25-Feb-2018,1,1,31,Sub35_Trial31_1,1,5,5,144.473669,False,2.49
35,0,25-Feb-2018,1,1,31,Sub35_Trial31_1,1,6,6,-72.386798,False,2.49
35,0,25-Feb-2018,1,1,32,Sub35_Trial32_0,0,0,0,31.680162,False,3.211
35,0,25-Feb-2018,1,1,32,Sub35_Trial32_0,0,1,1,-41.720124,False,3.211
35,0,25-Feb-2018,1,1,32,Sub35_Trial32_0,0,2,2,-93.039773,False,3.211
35,0,25-Feb-2018,1,1,32,Sub35_Trial32_0,0,3,3,51.505407,False,3.211
35,0,25-Feb-2018,1,1,32,Sub35_Trial32_0,0,4,4,77.018804,False,3.211
35,0,25-Feb-2018,1,1,32,Sub35_Trial32_0,0,5,5,1.284508,False,3.211
35,0,25-Feb-2018,1,1,32,Sub35_Trial32_0,0,6,6,-167.240488,False,3.211
35,0,25-Feb-2018,1,1,32,Sub35_Trial32_1,1,0,0,12.56723,True,3.211
35,0,25-Feb-2018,1,1,32,Sub35_Trial32_1,1,1,1,33.748182,True,3.211
35,0,25-Feb-2018,1,1,32,Sub35_Trial32_1,1,2,2,30.174164,True,3.211
35,0,25-Feb-2018,1,1,32,Sub35_Trial32_1,1,3,3,-15.633729,True,3.211
35,0,25-Feb-2018,1,1,32,Sub35_Trial32_1,1,4,4,-103.55516,True,3.211
35,0,25-Feb-2018,1,1,32,Sub35_Trial32_1,1,5,5,34.919201,True,3.211
35,0,25-Feb-2018,1,1,32,Sub35_Trial32_1,1,6,6,19.876106,True,3.211
35,0,25-Feb-2018,1,1,33,Sub35_Trial33_0,0,0,0,149.880298,False,0.82
35,0,25-Feb-2018,1,1,33,Sub35_Trial33_0,0,1,1,-19.076212,False,0.82
35,0,25-Feb-2018,1,1,33,Sub35_Trial33_0,0,2,2,42.031965,False,0.82
35,0,25-Feb-2018,1,1,33,Sub35_Trial33_0,0,3,3,-9.229128,False,0.82
35,0,25-Feb-2018,1,1,33,Sub35_Trial33_0,0,4,4,-85.756251,False,0.82
35,0,25-Feb-2018,1,1,33,Sub35_Trial33_0,0,5,5,-47.619056,False,0.82
35,0,25-Feb-2018,1,1,33,Sub35_Trial33_0,0,6,6,144.695657,False,0.82
35,0,25-Feb-2018,1,1,33,Sub35_Trial33_1,1,0,0,55.573582,True,0.82
35,0,25-Feb-2018,1,1,33,Sub35_Trial33_1,1,1,1,-5.130036,True,0.82
35,0,25-Feb-2018,1,1,33,Sub35_Trial33_1,1,2,2,-0.959273,True,0.82
35,0,25-Feb-2018,1,1,33,Sub35_Trial33_1,1,3,3,85.76436,True,0.82
35,0,25-Feb-2018,1,1,33,Sub35_Trial33_1,1,4,4,36.670172,True,0.82
35,0,25-Feb-2018,1,1,33,Sub35_Trial33_1,1,5,5,46.13044,True,0.82
35,0,25-Feb-2018,1,1,33,Sub35_Trial33_1,1,6,6,-112.060013,True,0.82
35,0,25-Feb-2018,1,1,34,Sub35_Trial34_0,0,0,0,-60.791079,True,2.804
35,0,25-Feb-2018,1,1,34,Sub35_Trial34_0,0,1,1,109.295149,True,2.804
35,0,25-Feb-2018,1,1,34,Sub35_Trial34_0,0,2,2,108.518269,True,2.804
35,0,25-Feb-2018,1,1,34,Sub35_Trial34_0,0,3,3,35.751646,True,2.804
35,0,25-Feb-2018,1,1,34,Sub35_Trial34_0,0,4,4,50.481555,True,2.804
35,0,25-Feb-2018,1,1,34,Sub35_Trial34_0,0,5,5,-122.567193,True,2.804
35,0,25-Feb-2018,1,1,34,Sub35_Trial34_0,0,6,6,-131.877614,True,2.804
35,0,25-Feb-2018,1,1,34,Sub35_Trial34_1,1,0,0,-63.269987,False,2.804
35,0,25-Feb-2018,1,1,34,Sub35_Trial34_1,1,1,1,97.743064,False,2.804
35,0,25-Feb-2018,1,1,34,Sub35_Trial34_1,1,2,2,-2.201338,False,2.804
35,0,25-Feb-2018,1,1,34,Sub35_Trial34_1,1,3,3,49.359989,False,2.804
35,0,25-Feb-2018,1,1,34,Sub35_Trial34_1,1,4,4,-9.712541,False,2.804
35,0,25-Feb-2018,1,1,34,Sub35_Trial34_1,1,5,5,11.243497,False,2.804
35,0,25-Feb-2018,1,1,34,Sub35_Trial34_1,1,6,6,-149.993193,False,2.804
35,0,25-Feb-2018,1,1,35,Sub35_Trial35_0,0,0,0,-102.994676,False,3.02
35,0,25-Feb-2018,1,1,35,Sub35_Trial35_0,0,1,1,-38.911349,False,3.02
35,0,25-Feb-2018,1,1,35,Sub35_Trial35_0,0,2,2,5.126832,False,3.02
35,0,25-Feb-2018,1,1,35,Sub35_Trial35_0,0,3,3,-63.503355,False,3.02
35,0,25-Feb-2018,1,1,35,Sub35_Trial35_0,0,4,4,-49.128566,False,3.02
35,0,25-Feb-2018,1,1,35,Sub35_Trial35_0,0,5,5,52.862857,False,3.02
35,0,25-Feb-2018,1,1,35,Sub35_Trial35_0,0,6,6,-49.203182,False,3.02
35,0,25-Feb-2018,1,1,35,Sub35_Trial35_1,1,0,0,189.610492,True,3.02
35,0,25-Feb-2018,1,1,35,Sub35_Trial35_1,1,1,1,25.132025,True,3.02
35,0,25-Feb-2018,1,1,35,Sub35_Trial35_1,1,2,2,-95.394246,True,3.02
35,0,25-Feb-2018,1,1,35,Sub35_Trial35_1,1,3,3,7.973464,True,3.02
35,0,25-Feb-2018,1,1,35,Sub35_Trial35_1,1,4,4,-69.392766,True,3.02
35,0,25-Feb-2018,1,1,35,Sub35_Trial35_1,1,5,5,39.073312,True,3.02
35,0,25-Feb-2018,1,1,35,Sub35_Trial35_1,1,6,6,-25.69604,True,3.02
35,0,25-Feb-2018,1,1,36,Sub35_Trial36_0,0,0,0,161.95883,False,2.052
35,0,25-Feb-2018,1,1,36,Sub35_Trial36_0,0,1,1,6.848665,False,2.052
35,0,25-Feb-2018,1,1,36,Sub35_Trial36_0,0,2,2,-65.230769,False,2.052
35,0,25-Feb-2018,1,1,36,Sub35_Trial36_0,0,3,3,181.243659,False,2.052
35,0,25-Feb-2018,1,1,36,Sub35_Trial36_0,0,4,4,-102.645464,False,2.052
35,0,25-Feb-2018,1,1,36,Sub35_Trial36_0,0,5,5,-186.895707,False,2.052
35,0,25-Feb-2018,1,1,36,Sub35_Trial36_0,0,6,6,-142.475118,False,2.052
35,0,25-Feb-2018,1,1,36,Sub35_Trial36_1,1,0,0,-141.887214,True,2.052
35,0,25-Feb-2018,1,1,36,Sub35_Trial36_1,1,1,1,2.16386,True,2.052
35,0,25-Feb-2018,1,1,36,Sub35_Trial36_1,1,2,2,-29.263812,True,2.052
35,0,25-Feb-2018,1,1,36,Sub35_Trial36_1,1,3,3,82.295573,True,2.052
35,0,25-Feb-2018,1,1,36,Sub35_Trial36_1,1,4,4,-61.652817,True,2.052
35,0,25-Feb-2018,1,1,36,Sub35_Trial36_1,1,5,5,19.846099,True,2.052
35,0,25-Feb-2018,1,1,36,Sub35_Trial36_1,1,6,6,60.98107,True,2.052
35,0,25-Feb-2018,1,1,37,Sub35_Trial37_0,0,0,0,73.249075,False,0.628
35,0,25-Feb-2018,1,1,37,Sub35_Trial37_0,0,1,1,-120.335803,False,0.628
35,0,25-Feb-2018,1,1,37,Sub35_Trial37_0,0,2,2,127.440625,False,0.628
35,0,25-Feb-2018,1,1,37,Sub35_Trial37_0,0,3,3,-101.11028,False,0.628
35,0,25-Feb-2018,1,1,37,Sub35_Trial37_0,0,4,4,-17.086259,False,0.628
35,0,25-Feb-2018,1,1,37,Sub35_Trial37_0,0,5,5,-81.44536,False,0.628
35,0,25-Feb-2018,1,1,37,Sub35_Trial37_0,0,6,6,-41.075397,False,0.628
35,0,25-Feb-2018,1,1,37,Sub35_Trial37_1,1,0,0,94.765659,True,0.628
35,0,25-Feb-2018,1,1,37,Sub35_Trial37_1,1,1,1,41.55753,True,0.628
35,0,25-Feb-2018,1,1,37,Sub35_Trial37_1,1,2,2,60.758956,True,0.628
35,0,25-Feb-2018,1,1,37,Sub35_Trial37_1,1,3,3,35.103634,True,0.628
35,0,25-Feb-2018,1,1,37,Sub35_Trial37_1,1,4,4,72.78627,True,0.628
35,0,25-Feb-2018,1,1,37,Sub35_Trial37_1,1,5,5,79.674182,True,0.628
35,0,25-Feb-2018,1,1,37,Sub35_Trial37_1,1,6,6,-2.731983,True,0.628
35,0,25-Feb-2018,1,1,38,Sub35_Trial38_0,0,0,0,191.417356,False,0.655
35,0,25-Feb-2018,1,1,38,Sub35_Trial38_0,0,1,1,-26.11843,False,0.655
35,0,25-Feb-2018,1,1,38,Sub35_Trial38_0,0,2,2,-41.740115,False,0.655
35,0,25-Feb-2018,1,1,38,Sub35_Trial38_0,0,3,3,37.095086,False,0.655
35,0,25-Feb-2018,1,1,38,Sub35_Trial38_0,0,4,4,-83.964298,False,0.655
35,0,25-Feb-2018,1,1,38,Sub35_Trial38_0,0,5,5,-164.943711,False,0.655
35,0,25-Feb-2018,1,1,38,Sub35_Trial38_0,0,6,6,-15.101677,False,0.655
35,0,25-Feb-2018,1,1,38,Sub35_Trial38_1,1,0,0,-143.637765,True,0.655
35,0,25-Feb-2018,1,1,38,Sub35_Trial38_1,1,1,1,-37.507524,True,0.655
35,0,25-Feb-2018,1,1,38,Sub35_Trial38_1,1,2,2,-51.09473,True,0.655
35,0,25-Feb-2018,1,1,38,Sub35_Trial38_1,1,3,3,116.940812,True,0.655
35,0,25-Feb-2018,1,1,38,Sub35_Trial38_1,1,4,4,6.700705,True,0.655
35,0,25-Feb-2018,1,1,38,Sub35_Trial38_1,1,5,5,51.921228,True,0.655
35,0,25-Feb-2018,1,1,38,Sub35_Trial38_1,1,6,6,-9.819545,True,0.655
35,0,25-Feb-2018,1,1,39,Sub35_Trial39_0,0,0,0,-162.949283,True,3.898
35,0,25-Feb-2018,1,1,39,Sub35_Trial39_0,0,1,1,-14.961681,True,3.898
35,0,25-Feb-2018,1,1,39,Sub35_Trial39_0,0,2,2,-5.24403,True,3.898
35,0,25-Feb-2018,1,1,39,Sub35_Trial39_0,0,3,3,69.14975,True,3.898
35,0,25-Feb-2018,1,1,39,Sub35_Trial39_0,0,4,4,77.05499,True,3.898
35,0,25-Feb-2018,1,1,39,Sub35_Trial39_0,0,5,5,-41.345098,True,3.898
35,0,25-Feb-2018,1,1,39,Sub35_Trial39_0,0,6,6,17.155208,True,3.898
35,0,25-Feb-2018,1,1,39,Sub35_Trial39_1,1,0,0,96.517807,False,3.898
35,0,25-Feb-2018,1,1,39,Sub35_Trial39_1,1,1,1,0.435791,False,3.898
35,0,25-Feb-2018,1,1,39,Sub35_Trial39_1,1,2,2,-64.703505,False,3.898
35,0,25-Feb-2018,1,1,39,Sub35_Trial39_1,1,3,3,12.080902,False,3.898
35,0,25-Feb-2018,1,1,39,Sub35_Trial39_1,1,4,4,-153.676182,False,3.898
35,0,25-Feb-2018,1,1,39,Sub35_Trial39_1,1,5,5,-60.696838,False,3.898
35,0,25-Feb-2018,1,1,39,Sub35_Trial39_1,1,6,6,-104.590008,False,3.898
35,0,25-Feb-2018,1,1,40,Sub35_Trial40_0,0,0,0,138.082286,False,0.602
35,0,25-Feb-2018,1,1,40,Sub35_Trial40_0,0,1,1,94.795924,False,0.602
35,0,25-Feb-2018,1,1,40,Sub35_Trial40_0,0,2,2,145.42891,False,0.602
35,0,25-Feb-2018,1,1,40,Sub35_Trial40_0,0,3,3,-133.68211,False,0.602
35,0,25-Feb-2018,1,1,40,Sub35_Trial40_0,0,4,4,9.693819,False,0.602
35,0,25-Feb-2018,1,1,40,Sub35_Trial40_0,0,5,5,-26.352775,False,0.602
35,0,25-Feb-2018,1,1,40,Sub35_Trial40_0,0,6,6,61.058707,False,0.602
35,0,25-Feb-2018,1,1,40,Sub35_Trial40_1,1,0,0,35.418773,True,0.602
35,0,25-Feb-2018,1,1,40,Sub35_Trial40_1,1,1,1,-28.815596,True,0.602
35,0,25-Feb-2018,1,1,40,Sub35_Trial40_1,1,2,2,-70.328673,True,0.602
35,0,25-Feb-2018,1,1,40,Sub35_Trial40_1,1,3,3,-102.497571,True,0.602
35,0,25-Feb-2018,1,1,40,Sub35_Trial40_1,1,4,4,134.841514,True,0.602
35,0,25-Feb-2018,1,1,40,Sub35_Trial40_1,1,5,5,143.021997,True,0.602
35,0,25-Feb-2018,1,1,40,Sub35_Trial40_1,1,6,6,116.162722,True,0.602
35,0,25-Feb-2018,1,1,41,Sub35_Trial41_0,0,0,0,-27.612142,True,2.952
35,0,25-Feb-2018,1,1,41,Sub35_Trial41_0,0,1,1,-46.263955,True,2.952
35,0,25-Feb-2018,1,1,41,Sub35_Trial41_0,0,2,2,-74.02224,True,2.952
35,0,25-Feb-2018,1,1,41,Sub35_Trial41_0,0,3,3,-104.627316,True,2.952
35,0,25-Feb-2018,1,1,41,Sub35_Trial41_0,0,4,4,-72.014278,True,2.952
35,0,25-Feb-2018,1,1,41,Sub35_Trial41_0,0,5,5,117.155854,True,2.952
35,0,25-Feb-2018,1,1,41,Sub35_Trial41_0,0,6,6,-112.580935,True,2.952
35,0,25-Feb-2018,1,1,41,Sub35_Trial41_1,1,0,0,122.054926,False,2.952
35,0,25-Feb-2018,1,1,41,Sub35_Trial41_1,1,1,1,-69.803094,False,2.952
35,0,25-Feb-2018,1,1,41,Sub35_Trial41_1,1,2,2,65.62889,False,2.952
35,0,25-Feb-2018,1,1,41,Sub35_Trial41_1,1,3,3,-23.016493,False,2.952
35,0,25-Feb-2018,1,1,41,Sub35_Trial41_1,1,4,4,76.932668,False,2.952
35,0,25-Feb-2018,1,1,41,Sub35_Trial41_1,1,5,5,65.115063,False,2.952
35,0,25-Feb-2018,1,1,41,Sub35_Trial41_1,1,6,6,70.471836,False,2.952
35,0,25-Feb-2018,1,1,42,Sub35_Trial42_0,0,0,0,-181.677341,True,3.329
35,0,25-Feb-2018,1,1,42,Sub35_Trial42_0,0,1,1,88.890614,True,3.329
35,0,25-Feb-2018,1,1,42,Sub35_Trial42_0,0,2,2,52.505193,True,3.329
35,0,25-Feb-2018,1,1,42,Sub35_Trial42_0,0,3,3,-90.987848,True,3.329
35,0,25-Feb-2018,1,1,42,Sub35_Trial42_0,0,4,4,11.170107,True,3.329
35,0,25-Feb-2018,1,1,42,Sub35_Trial42_0,0,5,5,-5.312747,True,3.329
35,0,25-Feb-2018,1,1,42,Sub35_Trial42_0,0,6,6,-45.009164,True,3.329
35,0,25-Feb-2018,1,1,42,Sub35_Trial42_1,1,0,0,-5.160086,False,3.329
35,0,25-Feb-2018,1,1,42,Sub35_Trial42_1,1,1,1,-70.372205,False,3.329
35,0,25-Feb-2018,1,1,42,Sub35_Trial42_1,1,2,2,52.99751,False,3.329
35,0,25-Feb-2018,1,1,42,Sub35_Trial42_1,1,3,3,-28.490061,False,3.329
35,0,25-Feb-2018,1,1,42,Sub35_Trial42_1,1,4,4,37.848156,False,3.329
35,0,25-Feb-2018,1,1,42,Sub35_Trial42_1,1,5,5,-9.213915,False,3.329
35,0,25-Feb-2018,1,1,42,Sub35_Trial42_1,1,6,6,20.647228,False,3.329
35,0,25-Feb-2018,1,1,43,Sub35_Trial43_0,0,0,0,61.610615,False,3.689
35,0,25-Feb-2018,1,1,43,Sub35_Trial43_0,0,1,1,-18.517814,False,3.689
35,0,25-Feb-2018,1,1,43,Sub35_Trial43_0,0,2,2,72.418578,False,3.689
35,0,25-Feb-2018,1,1,43,Sub35_Trial43_0,0,3,3,-16.778654,False,3.689
35,0,25-Feb-2018,1,1,43,Sub35_Trial43_0,0,4,4,21.619853,False,3.689
35,0,25-Feb-2018,1,1,43,Sub35_Trial43_0,0,5,5,7.328088,False,3.689
35,0,25-Feb-2018,1,1,43,Sub35_Trial43_0,0,6,6,66.050981,False,3.689
35,0,25-Feb-2018,1,1,43,Sub35_Trial43_1,1,0,0,-128.050319,True,3.689
35,0,25-Feb-2018,1,1,43,Sub35_Trial43_1,1,1,1,-89.838893,True,3.689
35,0,25-Feb-2018,1,1,43,Sub35_Trial43_1,1,2,2,-57.067163,True,3.689
35,0,25-Feb-2018,1,1,43,Sub35_Trial43_1,1,3,3,84.049145,True,3.689
35,0,25-Feb-2018,1,1,43,Sub35_Trial43_1,1,4,4,59.201157,True,3.689
35,0,25-Feb-2018,1,1,43,Sub35_Trial43_1,1,5,5,-6.092888,True,3.689
35,0,25-Feb-2018,1,1,43,Sub35_Trial43_1,1,6,6,51.534135,True,3.689
35,0,25-Feb-2018,1,1,44,Sub35_Trial44_0,0,0,0,34.117412,True,1.392
35,0,25-Feb-2018,1,1,44,Sub35_Trial44_0,0,1,1,66.359962,True,1.392
35,0,25-Feb-2018,1,1,44,Sub35_Trial44_0,0,2,2,-11.846055,True,1.392
35,0,25-Feb-2018,1,1,44,Sub35_Trial44_0,0,3,3,1.442599,True,1.392
35,0,25-Feb-2018,1,1,44,Sub35_Trial44_0,0,4,4,-150.354124,True,1.392
35,0,25-Feb-2018,1,1,44,Sub35_Trial44_0,0,5,5,141.306217,True,1.392
35,0,25-Feb-2018,1,1,44,Sub35_Trial44_0,0,6,6,84.441515,True,1.392
35,0,25-Feb-2018,1,1,44,Sub35_Trial44_1,1,0,0,-110.66279,False,1.392
35,0,25-Feb-2018,1,1,44,Sub35_Trial44_1,1,1,1,60.03277,False,1.392
35,0,25-Feb-2018,1,1,44,Sub35_Trial44_1,1,2,2,164.110846,False,1.392
35,0,25-Feb-2018,1,1,44,Sub35_Trial44_1,1,3,3,88.964932,False,1.392
35,0,25-Feb-2018,1,1,44,Sub35_Trial44_1,1,4,4,-73.319106,False,1.392
35,0,25-Feb-2018,1,1,44,Sub35_Trial44_1,1,5,5,-137.555192,False,1.392
35,0,25-Feb-2018,1,1,44,Sub35_Trial44_1,1,6,6,90.044934,False,1.392
35,0,25-Feb-2018,1,1,45,Sub35_Trial45_0,0,0,0,7.908801,True,1.108
35,0,25-Feb-2018,1,1,45,Sub35_Trial45_0,0,1,1,50.662428,True,1.108
35,0,25-Feb-2018,1,1,45,Sub35_Trial45_0,0,2,2,-6.355485,True,1.108
35,0,25-Feb-2018,1,1,45,Sub35_Trial45_0,0,3,3,116.669974,True,1.108
35,0,25-Feb-2018,1,1,45,Sub35_Trial45_0,0,4,4,91.008733,True,1.108
35,0,25-Feb-2018,1,1,45,Sub35_Trial45_0,0,5,5,-33.537248,True,1.108
35,0,25-Feb-2018,1,1,45,Sub35_Trial45_0,0,6,6,-11.284392,True,1.108
35,0,25-Feb-2018,1,1,45,Sub35_Trial45_1,1,0,0,71.50421,False,1.108
35,0,25-Feb-2018,1,1,45,Sub35_Trial45_1,1,1,1,79.313052,False,1.108
35,0,25-Feb-2018,1,1,45,Sub35_Trial45_1,1,2,2,-39.118144,False,1.108
35,0,25-Feb-2018,1,1,45,Sub35_Trial45_1,1,3,3,-174.376568,False,1.108
35,0,25-Feb-2018,1,1,45,Sub35_Trial45_1,1,4,4,-79.305667,False,1.108
35,0,25-Feb-2018,1,1,45,Sub35_Trial45_1,1,5,5,-51.03157,False,1.108
35,0,25-Feb-2018,1,1,45,Sub35_Trial45_1,1,6,6,23.025135,False,1.108
35,0,25-Feb-2018,1,1,46,Sub35_Trial46_0,0,0,0,-80.321449,False,3.056
35,0,25-Feb-2018,1,1,46,Sub35_Trial46_0,0,1,1,-0.807245,False,3.056
35,0,25-Feb-2018,1,1,46,Sub35_Trial46_0,0,2,2,75.877098,False,3.056
35,0,25-Feb-2018,1,1,46,Sub35_Trial46_0,0,3,3,116.178316,False,3.056
35,0,25-Feb-2018,1,1,46,Sub35_Trial46_0,0,4,4,-158.692744,False,3.056
35,0,25-Feb-2018,1,1,46,Sub35_Trial46_0,0,5,5,27.246535,False,3.056
35,0,25-Feb-2018,1,1,46,Sub35_Trial46_0,0,6,6,125.922652,False,3.056
35,0,25-Feb-2018,1,1,46,Sub35_Trial46_1,1,0,0,47.700418,True,3.056
35,0,25-Feb-2018,1,1,46,Sub35_Trial46_1,1,1,1,-84.948396,True,3.056
35,0,25-Feb-2018,1,1,46,Sub35_Trial46_1,1,2,2,50.862622,True,3.056
35,0,25-Feb-2018,1,1,46,Sub35_Trial46_1,1,3,3,-57.481829,True,3.056
35,0,25-Feb-2018,1,1,46,Sub35_Trial46_1,1,4,4,196.132637,True,3.056
35,0,25-Feb-2018,1,1,46,Sub35_Trial46_1,1,5,5,57.510248,True,3.056
35,0,25-Feb-2018,1,1,46,Sub35_Trial46_1,1,6,6,-84.452748,True,3.056
35,0,25-Feb-2018,1,1,47,Sub35_Trial47_0,0,0,0,-48.699346,False,0.623
35,0,25-Feb-2018,1,1,47,Sub35_Trial47_0,0,1,1,-118.521577,False,0.623
35,0,25-Feb-2018,1,1,47,Sub35_Trial47_0,0,2,2,92.570511,False,0.623
35,0,25-Feb-2018,1,1,47,Sub35_Trial47_0,0,3,3,-24.736168,False,0.623
35,0,25-Feb-2018,1,1,47,Sub35_Trial47_0,0,4,4,20.050002,False,0.623
35,0,25-Feb-2018,1,1,47,Sub35_Trial47_0,0,5,5,-113.496032,False,0.623
35,0,25-Feb-2018,1,1,47,Sub35_Trial47_0,0,6,6,-101.818352,False,0.623
35,0,25-Feb-2018,1,1,47,Sub35_Trial47_1,1,0,0,70.811178,True,0.623
35,0,25-Feb-2018,1,1,47,Sub35_Trial47_1,1,1,1,-112.003268,True,0.623
35,0,25-Feb-2018,1,1,47,Sub35_Trial47_1,1,2,2,75.530463,True,0.623
35,0,25-Feb-2018,1,1,47,Sub35_Trial47_1,1,3,3,183.665004,True,0.623
35,0,25-Feb-2018,1,1,47,Sub35_Trial47_1,1,4,4,-67.763746,True,0.623
35,0,25-Feb-2018,1,1,47,Sub35_Trial47_1,1,5,5,34.488732,True,0.623
35,0,25-Feb-2018,1,1,47,Sub35_Trial47_1,1,6,6,195.414369,True,0.623
35,0,25-Feb-2018,1,1,48,Sub35_Trial48_0,0,0,0,-166.534632,True,2.924
35,0,25-Feb-2018,1,1,48,Sub35_Trial48_0,0,1,1,-168.511843,True,2.924
35,0,25-Feb-2018,1,1,48,Sub35_Trial48_0,0,2,2,87.038926,True,2.924
35,0,25-Feb-2018,1,1,48,Sub35_Trial48_0,0,3,3,-34.34545,True,2.924
35,0,25-Feb-2018,1,1,48,Sub35_Trial48_0,0,4,4,-22.297963,True,2.924
35,0,25-Feb-2018,1,1,48,Sub35_Trial48_0,0,5,5,58.132705,True,2.924
35,0,25-Feb-2018,1,1,48,Sub35_Trial48_0,0,6,6,112.510074,True,2.924
35,0,25-Feb-2018,1,1,48,Sub35_Trial48_1,1,0,0,-58.650527,False,2.924
35,0,25-Feb-2018,1,1,48,Sub35_Trial48_1,1,1,1,-27.878561,False,2.924
35,0,25-Feb-2018,1,1,48,Sub35_Trial48_1,1,2,2,-117.656367,False,2.924
35,0,25-Feb-2018,1,1,48,Sub35_Trial48_1,1,3,3,58.138775,False,2.924
35,0,25-Feb-2018,1,1,48,Sub35_Trial48_1,1,4,4,-59.269906,False,2.924
35,0,25-Feb-2018,1,1,48,Sub35_Trial48_1,1,5,5,-49.1632,False,2.924
35,0,25-Feb-2018,1,1,48,Sub35_Trial48_1,1,6,6,-27.567402,False,2.924
35,0,25-Feb-2018,1,1,49,Sub35_Trial49_0,0,0,0,-38.975455,False,0.572
35,0,25-Feb-2018,1,1,49,Sub35_Trial49_0,0,1,1,-19.026668,False,0.572
35,0,25-Feb-2018,1,1,49,Sub35_Trial49_0,0,2,2,-25.147541,False,0.572
35,0,25-Feb-2018,1,1,49,Sub35_Trial49_0,0,3,3,95.193191,False,0.572
35,0,25-Feb-2018,1,1,49,Sub35_Trial49_0,0,4,4,-15.099576,False,0.572
35,0,25-Feb-2018,1,1,49,Sub35_Trial49_0,0,5,5,-37.209905,False,0.572
35,0,25-Feb-2018,1,1,49,Sub35_Trial49_0,0,6,6,29.074223,False,0.572
35,0,25-Feb-2018,1,1,49,Sub35_Trial49_1,1,0,0,129.417157,True,0.572
35,0,25-Feb-2018,1,1,49,Sub35_Trial49_1,1,1,1,-9.446749,True,0.572
35,0,25-Feb-2018,1,1,49,Sub35_Trial49_1,1,2,2,-109.419059,True,0.572
35,0,25-Feb-2018,1,1,49,Sub35_Trial49_1,1,3,3,-112.86482,True,0.572
35,0,25-Feb-2018,1,1,49,Sub35_Trial49_1,1,4,4,119.246699,True,0.572
35,0,25-Feb-2018,1,1,49,Sub35_Trial49_1,1,5,5,108.477737,True,0.572
35,0,25-Feb-2018,1,1,49,Sub35_Trial49_1,1,6,6,53.288445,True,0.572
35,0,25-Feb-2018,1,1,50,Sub35_Trial50_0,0,0,0,-79.237713,False,2.474
35,0,25-Feb-2018,1,1,50,Sub35_Trial50_0,0,1,1,-24.442942,False,2.474
35,0,25-Feb-2018,1,1,50,Sub35_Trial50_0,0,2,2,25.233397,False,2.474
35,0,25-Feb-2018,1,1,50,Sub35_Trial50_0,0,3,3,-54.935345,False,2.474
35,0,25-Feb-2018,1,1,50,Sub35_Trial50_0,0,4,4,127.622382,False,2.474
35,0,25-Feb-2018,1,1,50,Sub35_Trial50_0,0,5,5,13.506843,False,2.474
35,0,25-Feb-2018,1,1,50,Sub35_Trial50_0,0,6,6,3.327309,False,2.474
35,0,25-Feb-2018,1,1,50,Sub35_Trial50_1,1,0,0,70.166639,True,2.474
35,0,25-Feb-2018,1,1,50,Sub35_Trial50_1,1,1,1,20.149874,True,2.474
35,0,25-Feb-2018,1,1,50,Sub35_Trial50_1,1,2,2,92.760083,True,2.474
35,0,25-Feb-2018,1,1,50,Sub35_Trial50_1,1,3,3,78.721183,True,2.474
35,0,25-Feb-2018,1,1,50,Sub35_Trial50_1,1,4,4,-131.033445,True,2.474
35,0,25-Feb-2018,1,1,50,Sub35_Trial50_1,1,5,5,19.255275,True,2.474
35,0,25-Feb-2018,1,1,50,Sub35_Trial50_1,1,6,6,71.768017,True,2.474
35,0,25-Feb-2018,1,2,51,Sub35_Trial51_0,0,0,0,-30.734347,False,1.642
35,0,25-Feb-2018,1,2,51,Sub35_Trial51_0,0,1,1,110.372996,False,1.642
35,0,25-Feb-2018,1,2,51,Sub35_Trial51_0,0,2,2,188.669386,False,1.642
35,0,25-Feb-2018,1,2,51,Sub35_Trial51_0,0,3,3,-88.049645,False,1.642
35,0,25-Feb-2018,1,2,51,Sub35_Trial51_0,0,4,4,93.725494,False,1.642
35,0,25-Feb-2018,1,2,51,Sub35_Trial51_0,0,5,5,-101.859509,False,1.642
35,0,25-Feb-2018,1,2,51,Sub35_Trial51_0,0,6,6,-51.30443,False,1.642
35,0,25-Feb-2018,1,2,51,Sub35_Trial51_1,1,0,0,-122.805212,True,1.642
35,0,25-Feb-2018,1,2,51,Sub35_Trial51_1,1,1,1,40.604892,True,1.642
35,0,25-Feb-2018,1,2,51,Sub35_Trial51_1,1,2,2,-181.413635,True,1.642
35,0,25-Feb-2018,1,2,51,Sub35_Trial51_1,1,3,3,-11.91542,True,1.642
35,0,25-Feb-2018,1,2,51,Sub35_Trial51_1,1,4,4,-76.927545,True,1.642
35,0,25-Feb-2018,1,2,51,Sub35_Trial51_1,1,5,5,42.002524,True,1.642
35,0,25-Feb-2018,1,2,51,Sub35_Trial51_1,1,6,6,-133.055779,True,1.642
35,0,25-Feb-2018,1,2,52,Sub35_Trial52_0,0,0,0,-62.249713,True,2.868
35,0,25-Feb-2018,1,2,52,Sub35_Trial52_0,0,1,1,-60.740198,True,2.868
35,0,25-Feb-2018,1,2,52,Sub35_Trial52_0,0,2,2,-32.812103,True,2.868
35,0,25-Feb-2018,1,2,52,Sub35_Trial52_0,0,3,3,-3.545336,True,2.868
35,0,25-Feb-2018,1,2,52,Sub35_Trial52_0,0,4,4,54.113636,True,2.868
35,0,25-Feb-2018,1,2,52,Sub35_Trial52_0,0,5,5,21.592019,True,2.868
35,0,25-Feb-2018,1,2,52,Sub35_Trial52_0,0,6,6,-40.785765,True,2.868
35,0,25-Feb-2018,1,2,52,Sub35_Trial52_1,1,0,0,-123.905154,False,2.868
35,0,25-Feb-2018,1,2,52,Sub35_Trial52_1,1,1,1,-97.726736,False,2.868
35,0,25-Feb-2018,1,2,52,Sub35_Trial52_1,1,2,2,133.405697,False,2.868
35,0,25-Feb-2018,1,2,52,Sub35_Trial52_1,1,3,3,139.449452,False,2.868
35,0,25-Feb-2018,1,2,52,Sub35_Trial52_1,1,4,4,-165.225775,False,2.868
35,0,25-Feb-2018,1,2,52,Sub35_Trial52_1,1,5,5,31.74641,False,2.868
35,0,25-Feb-2018,1,2,52,Sub35_Trial52_1,1,6,6,-107.817542,False,2.868
35,0,25-Feb-2018,1,2,53,Sub35_Trial53_0,0,0,0,-107.044178,False,1.687
35,0,25-Feb-2018,1,2,53,Sub35_Trial53_0,0,1,1,-8.579463,False,1.687
35,0,25-Feb-2018,1,2,53,Sub35_Trial53_0,0,2,2,38.652576,False,1.687
35,0,25-Feb-2018,1,2,53,Sub35_Trial53_0,0,3,3,1.872806,False,1.687
35,0,25-Feb-2018,1,2,53,Sub35_Trial53_0,0,4,4,-50.181684,False,1.687
35,0,25-Feb-2018,1,2,53,Sub35_Trial53_0,0,5,5,140.00363,False,1.687
35,0,25-Feb-2018,1,2,53,Sub35_Trial53_0,0,6,6,129.92743,False,1.687
35,0,25-Feb-2018,1,2,53,Sub35_Trial53_1,1,0,0,78.878857,True,1.687
35,0,25-Feb-2018,1,2,53,Sub35_Trial53_1,1,1,1,15.808703,True,1.687
35,0,25-Feb-2018,1,2,53,Sub35_Trial53_1,1,2,2,-29.983062,True,1.687
35,0,25-Feb-2018,1,2,53,Sub35_Trial53_1,1,3,3,-1.647924,True,1.687
35,0,25-Feb-2018,1,2,53,Sub35_Trial53_1,1,4,4,153.928895,True,1.687
35,0,25-Feb-2018,1,2,53,Sub35_Trial53_1,1,5,5,160.386123,True,1.687
35,0,25-Feb-2018,1,2,53,Sub35_Trial53_1,1,6,6,8.402032,True,1.687
35,0,25-Feb-2018,1,2,54,Sub35_Trial54_0,0,0,0,14.27028,True,2.489
35,0,25-Feb-2018,1,2,54,Sub35_Trial54_0,0,1,1,-37.15401,True,2.489
35,0,25-Feb-2018,1,2,54,Sub35_Trial54_0,0,2,2,124.412758,True,2.489
35,0,25-Feb-2018,1,2,54,Sub35_Trial54_0,0,3,3,-11.755115,True,2.489
35,0,25-Feb-2018,1,2,54,Sub35_Trial54_0,0,4,4,34.38654,True,2.489
35,0,25-Feb-2018,1,2,54,Sub35_Trial54_0,0,5,5,-102.098747,True,2.489
35,0,25-Feb-2018,1,2,54,Sub35_Trial54_0,0,6,6,35.733367,True,2.489
35,0,25-Feb-2018,1,2,54,Sub35_Trial54_1,1,0,0,116.24048,False,2.489
35,0,25-Feb-2018,1,2,54,Sub35_Trial54_1,1,1,1,-85.008265,False,2.489
35,0,25-Feb-2018,1,2,54,Sub35_Trial54_1,1,2,2,-63.595571,False,2.489
35,0,25-Feb-2018,1,2,54,Sub35_Trial54_1,1,3,3,26.442983,False,2.489
35,0,25-Feb-2018,1,2,54,Sub35_Trial54_1,1,4,4,47.129493,False,2.489
35,0,25-Feb-2018,1,2,54,Sub35_Trial54_1,1,5,5,-87.278058,False,2.489
35,0,25-Feb-2018,1,2,54,Sub35_Trial54_1,1,6,6,21.074397,False,2.489
35,0,25-Feb-2018,1,2,55,Sub35_Trial55_0,0,0,0,-62.451363,False,0.755
35,0,25-Feb-2018,1,2,55,Sub35_Trial55_0,0,1,1,34.929441,False,0.755
35,0,25-Feb-2018,1,2,55,Sub35_Trial55_0,0,2,2,-79.983983,False,0.755
35,0,25-Feb-2018,1,2,55,Sub35_Trial55_0,0,3,3,-168.379096,False,0.755
35,0,25-Feb-2018,1,2,55,Sub35_Trial55_0,0,4,4,26.767218,False,0.755
35,0,25-Feb-2018,1,2,55,Sub35_Trial55_0,0,5,5,13.285125,False,0.755
35,0,25-Feb-2018,1,2,55,Sub35_Trial55_0,0,6,6,34.406782,False,0.755
35,0,25-Feb-2018,1,2,55,Sub35_Trial55_1,1,0,0,117.195387,True,0.755
35,0,25-Feb-2018,1,2,55,Sub35_Trial55_1,1,1,1,130.25133,True,0.755
35,0,25-Feb-2018,1,2,55,Sub35_Trial55_1,1,2,2,-53.957605,True,0.755
35,0,25-Feb-2018,1,2,55,Sub35_Trial55_1,1,3,3,-10.324092,True,0.755
35,0,25-Feb-2018,1,2,55,Sub35_Trial55_1,1,4,4,-68.733238,True,0.755
35,0,25-Feb-2018,1,2,55,Sub35_Trial55_1,1,5,5,95.207902,True,0.755
35,0,25-Feb-2018,1,2,55,Sub35_Trial55_1,1,6,6,-94.020673,True,0.755
35,0,25-Feb-2018,1,2,56,Sub35_Trial56_0,0,0,0,-120.177788,True,0.955
35,0,25-Feb-2018,1,2,56,Sub35_Trial56_0,0,1,1,21.196544,True,0.955
35,0,25-Feb-2018,1,2,56,Sub35_Trial56_0,0,2,2,173.550855,True,0.955
35,0,25-Feb-2018,1,2,56,Sub35_Trial56_0,0,3,3,83.976896,True,0.955
35,0,25-Feb-2018,1,2,56,Sub35_Trial56_0,0,4,4,73.86896,True,0.955
35,0,25-Feb-2018,1,2,56,Sub35_Trial56_0,0,5,5,42.270538,True,0.955
35,0,25-Feb-2018,1,2,56,Sub35_Trial56_0,0,6,6,-138.829362,True,0.955
35,0,25-Feb-2018,1,2,56,Sub35_Trial56_1,1,0,0,-14.573549,False,0.955
35,0,25-Feb-2018,1,2,56,Sub35_Trial56_1,1,1,1,-92.577047,False,0.955
35,0,25-Feb-2018,1,2,56,Sub35_Trial56_1,1,2,2,48.730521,False,0.955
35,0,25-Feb-2018,1,2,56,Sub35_Trial56_1,1,3,3,-75.036096,False,0.955
35,0,25-Feb-2018,1,2,56,Sub35_Trial56_1,1,4,4,-185.985315,False,0.955
35,0,25-Feb-2018,1,2,56,Sub35_Trial56_1,1,5,5,-4.71493,False,0.955
35,0,25-Feb-2018,1,2,56,Sub35_Trial56_1,1,6,6,86.983492,False,0.955
35,0,25-Feb-2018,1,2,57,Sub35_Trial57_0,0,0,0,26.236676,False,1.56
35,0,25-Feb-2018,1,2,57,Sub35_Trial57_0,0,1,1,-96.235492,False,1.56
35,0,25-Feb-2018,1,2,57,Sub35_Trial57_0,0,2,2,-10.287247,False,1.56
35,0,25-Feb-2018,1,2,57,Sub35_Trial57_0,0,3,3,-88.092054,False,1.56
35,0,25-Feb-2018,1,2,57,Sub35_Trial57_0,0,4,4,-93.204815,False,1.56
35,0,25-Feb-2018,1,2,57,Sub35_Trial57_0,0,5,5,189.704139,False,1.56
35,0,25-Feb-2018,1,2,57,Sub35_Trial57_0,0,6,6,-84.745807,False,1.56
35,0,25-Feb-2018,1,2,57,Sub35_Trial57_1,1,0,0,-31.077089,True,1.56
35,0,25-Feb-2018,1,2,57,Sub35_Trial57_1,1,1,1,40.79323,True,1.56
35,0,25-Feb-2018,1,2,57,Sub35_Trial57_1,1,2,2,86.019329,True,1.56
35,0,25-Feb-2018,1,2,57,Sub35_Trial57_1,1,3,3,-23.367592,True,1.56
35,0,25-Feb-2018,1,2,57,Sub35_Trial57_1,1,4,4,10.514857,True,1.56
35,0,25-Feb-2018,1,2,57,Sub35_Trial57_1,1,5,5,163.753522,True,1.56
35,0,25-Feb-2018,1,2,57,Sub35_Trial57_1,1,6,6,-20.611785,True,1.56
35,0,25-Feb-2018,1,2,58,Sub35_Trial58_0,0,0,0,43.310635,True,3.05
35,0,25-Feb-2018,1,2,58,Sub35_Trial58_0,0,1,1,-49.187494,True,3.05
35,0,25-Feb-2018,1,2,58,Sub35_Trial58_0,0,2,2,48.041098,True,3.05
35,0,25-Feb-2018,1,2,58,Sub35_Trial58_0,0,3,3,62.046203,True,3.05
35,0,25-Feb-2018,1,2,58,Sub35_Trial58_0,0,4,4,44.49561,True,3.05
35,0,25-Feb-2018,1,2,58,Sub35_Trial58_0,0,5,5,-128.306059,True,3.05
35,0,25-Feb-2018,1,2,58,Sub35_Trial58_0,0,6,6,3.248768,True,3.05
35,0,25-Feb-2018,1,2,58,Sub35_Trial58_1,1,0,0,163.575327,False,3.05
35,0,25-Feb-2018,1,2,58,Sub35_Trial58_1,1,1,1,66.532772,False,3.05
35,0,25-Feb-2018,1,2,58,Sub35_Trial58_1,1,2,2,107.345771,False,3.05
35,0,25-Feb-2018,1,2,58,Sub35_Trial58_1,1,3,3,-5.545121,False,3.05
35,0,25-Feb-2018,1,2,58,Sub35_Trial58_1,1,4,4,-13.144532,False,3.05
35,0,25-Feb-2018,1,2,58,Sub35_Trial58_1,1,5,5,-25.842716,False,3.05
35,0,25-Feb-2018,1,2,58,Sub35_Trial58_1,1,6,6,-32.934313,False,3.05
35,0,25-Feb-2018,1,2,59,Sub35_Trial59_0,0,0,0,-44.13371,False,3.272
35,0,25-Feb-2018,1,2,59,Sub35_Trial59_0,0,1,1,-17.333941,False,3.272
35,0,25-Feb-2018,1,2,59,Sub35_Trial59_0,0,2,2,-142.413631,False,3.272
35,0,25-Feb-2018,1,2,59,Sub35_Trial59_0,0,3,3,4.320166,False,3.272
35,0,25-Feb-2018,1,2,59,Sub35_Trial59_0,0,4,4,-82.875381,False,3.272
35,0,25-Feb-2018,1,2,59,Sub35_Trial59_0,0,5,5,-60.898896,False,3.272
35,0,25-Feb-2018,1,2,59,Sub35_Trial59_0,0,6,6,-30.423196,False,3.272
35,0,25-Feb-2018,1,2,59,Sub35_Trial59_1,1,0,0,-59.714502,True,3.272
35,0,25-Feb-2018,1,2,59,Sub35_Trial59_1,1,1,1,-104.486593,True,3.272
35,0,25-Feb-2018,1,2,59,Sub35_Trial59_1,1,2,2,6.592039,True,3.272
35,0,25-Feb-2018,1,2,59,Sub35_Trial59_1,1,3,3,113.561669,True,3.272
35,0,25-Feb-2018,1,2,59,Sub35_Trial59_1,1,4,4,-6.371698,True,3.272
35,0,25-Feb-2018,1,2,59,Sub35_Trial59_1,1,5,5,-89.169672,True,3.272
35,0,25-Feb-2018,1,2,59,Sub35_Trial59_1,1,6,6,-89.665643,True,3.272
35,0,25-Feb-2018,1,2,60,Sub35_Trial60_0,0,0,0,141.136143,True,1.296
35,0,25-Feb-2018,1,2,60,Sub35_Trial60_0,0,1,1,-42.128596,True,1.296
35,0,25-Feb-2018,1,2,60,Sub35_Trial60_0,0,2,2,-1.908944,True,1.296
35,0,25-Feb-2018,1,2,60,Sub35_Trial60_0,0,3,3,51.794827,True,1.296
35,0,25-Feb-2018,1,2,60,Sub35_Trial60_0,0,4,4,8.664648,True,1.296
35,0,25-Feb-2018,1,2,60,Sub35_Trial60_0,0,5,5,12.657499,True,1.296
35,0,25-Feb-2018,1,2,60,Sub35_Trial60_0,0,6,6,-78.751775,True,1.296
35,0,25-Feb-2018,1,2,60,Sub35_Trial60_1,1,0,0,-120.025003,False,1.296
35,0,25-Feb-2018,1,2,60,Sub35_Trial60_1,1,1,1,-9.039946,False,1.296
35,0,25-Feb-2018,1,2,60,Sub35_Trial60_1,1,2,2,-41.503814,False,1.296
35,0,25-Feb-2018,1,2,60,Sub35_Trial60_1,1,3,3,18.283054,False,1.296
35,0,25-Feb-2018,1,2,60,Sub35_Trial60_1,1,4,4,-170.85385,False,1.296
35,0,25-Feb-2018,1,2,60,Sub35_Trial60_1,1,5,5,61.465332,False,1.296
35,0,25-Feb-2018,1,2,60,Sub35_Trial60_1,1,6,6,13.698457,False,1.296
35,0,25-Feb-2018,1,2,61,Sub35_Trial61_0,0,0,0,-154.916336,True,0.699
35,0,25-Feb-2018,1,2,61,Sub35_Trial61_0,0,1,1,-168.563023,True,0.699
35,0,25-Feb-2018,1,2,61,Sub35_Trial61_0,0,2,2,-53.824123,True,0.699
35,0,25-Feb-2018,1,2,61,Sub35_Trial61_0,0,3,3,127.374059,True,0.699
35,0,25-Feb-2018,1,2,61,Sub35_Trial61_0,0,4,4,124.077006,True,0.699
35,0,25-Feb-2018,1,2,61,Sub35_Trial61_0,0,5,5,142.722879,True,0.699
35,0,25-Feb-2018,1,2,61,Sub35_Trial61_0,0,6,6,-20.189503,True,0.699
35,0,25-Feb-2018,1,2,61,Sub35_Trial61_1,1,0,0,111.940705,False,0.699
35,0,25-Feb-2018,1,2,61,Sub35_Trial61_1,1,1,1,-136.723242,False,0.699
35,0,25-Feb-2018,1,2,61,Sub35_Trial61_1,1,2,2,11.680797,False,0.699
35,0,25-Feb-2018,1,2,61,Sub35_Trial61_1,1,3,3,-47.978842,False,0.699
35,0,25-Feb-2018,1,2,61,Sub35_Trial61_1,1,4,4,138.961408,False,0.699
35,0,25-Feb-2018,1,2,61,Sub35_Trial61_1,1,5,5,-42.185515,False,0.699
35,0,25-Feb-2018,1,2,61,Sub35_Trial61_1,1,6,6,-47.560986,False,0.699
35,0,25-Feb-2018,1,2,62,Sub35_Trial62_0,0,0,0,-36.292936,True,0.822
35,0,25-Feb-2018,1,2,62,Sub35_Trial62_0,0,1,1,-12.949006,True,0.822
35,0,25-Feb-2018,1,2,62,Sub35_Trial62_0,0,2,2,-52.03632,True,0.822
35,0,25-Feb-2018,1,2,62,Sub35_Trial62_0,0,3,3,46.667428,True,0.822
35,0,25-Feb-2018,1,2,62,Sub35_Trial62_0,0,4,4,-39.412258,True,0.822
35,0,25-Feb-2018,1,2,62,Sub35_Trial62_0,0,5,5,153.272957,True,0.822
35,0,25-Feb-2018,1,2,62,Sub35_Trial62_0,0,6,6,37.091775,True,0.822
35,0,25-Feb-2018,1,2,62,Sub35_Trial62_1,1,0,0,34.828543,False,0.822
35,0,25-Feb-2018,1,2,62,Sub35_Trial62_1,1,1,1,35.146659,False,0.822
35,0,25-Feb-2018,1,2,62,Sub35_Trial62_1,1,2,2,22.979154,False,0.822
35,0,25-Feb-2018,1,2,62,Sub35_Trial62_1,1,3,3,93.461496,False,0.822
35,0,25-Feb-2018,1,2,62,Sub35_Trial62_1,1,4,4,136.528439,False,0.822
35,0,25-Feb-2018,1,2,62,Sub35_Trial62_1,1,5,5,-5.111099,False,0.822
35,0,25-Feb-2018,1,2,62,Sub35_Trial62_1,1,6,6,-93.71506,False,0.822
35,0,25-Feb-2018,1,2,63,Sub35_Trial63_0,0,0,0,-160.375983,True,0.932
35,0,25-Feb-2018,1,2,63,Sub35_Trial63_0,0,1,1,-118.614502,True,0.932
35,0,25-Feb-2018,1,2,63,Sub35_Trial63_0,0,2,2,11.714675,True,0.932
35,0,25-Feb-2018,1,2,63,Sub35_Trial63_0,0,3,3,86.086174,True,0.932
35,0,25-Feb-2018,1,2,63,Sub35_Trial63_0,0,4,4,105.937674,True,0.932
35,0,25-Feb-2018,1,2,63,Sub35_Trial63_0,0,5,5,57.261128,True,0.932
35,0,25-Feb-2018,1,2,63,Sub35_Trial63_0,0,6,6,47.761265,True,0.932
35,0,25-Feb-2018,1,2,63,Sub35_Trial63_1,1,0,0,1.96294,False,0.932
35,0,25-Feb-2018,1,2,63,Sub35_Trial63_1,1,1,1,-49.298789,False,0.932
35,0,25-Feb-2018,1,2,63,Sub35_Trial63_1,1,2,2,24.032529,False,0.932
35,0,25-Feb-2018,1,2,63,Sub35_Trial63_1,1,3,3,166.746186,False,0.932
35,0,25-Feb-2018,1,2,63,Sub35_Trial63_1,1,4,4,-45.993263,False,0.932
35,0,25-Feb-2018,1,2,63,Sub35_Trial63_1,1,5,5,-23.367288,False,0.932
35,0,25-Feb-2018,1,2,63,Sub35_Trial63_1,1,6,6,-146.570239,False,0.932
35,0,25-Feb-2018,1,2,64,Sub35_Trial64_0,0,0,0,-49.669742,False,0.9
35,0,25-Feb-2018,1,2,64,Sub35_Trial64_0,0,1,1,121.677393,False,0.9
35,0,25-Feb-2018,1,2,64,Sub35_Trial64_0,0,2,2,31.595396,False,0.9
35,0,25-Feb-2018,1,2,64,Sub35_Trial64_0,0,3,3,109.710795,False,0.9
35,0,25-Feb-2018,1,2,64,Sub35_Trial64_0,0,4,4,-110.368605,False,0.9
35,0,25-Feb-2018,1,2,64,Sub35_Trial64_0,0,5,5,-114.350211,False,0.9
35,0,25-Feb-2018,1,2,64,Sub35_Trial64_0,0,6,6,-34.11368,False,0.9
35,0,25-Feb-2018,1,2,64,Sub35_Trial64_1,1,0,0,-62.192111,True,0.9
35,0,25-Feb-2018,1,2,64,Sub35_Trial64_1,1,1,1,-17.964717,True,0.9
35,0,25-Feb-2018,1,2,64,Sub35_Trial64_1,1,2,2,156.001376,True,0.9
35,0,25-Feb-2018,1,2,64,Sub35_Trial64_1,1,3,3,-33.896043,True,0.9
35,0,25-Feb-2018,1,2,64,Sub35_Trial64_1,1,4,4,-63.120133,True,0.9
35,0,25-Feb-2018,1,2,64,Sub35_Trial64_1,1,5,5,47.711792,True,0.9
35,0,25-Feb-2018,1,2,64,Sub35_Trial64_1,1,6,6,93.300618,True,0.9
35,0,25-Feb-2018,1,2,65,Sub35_Trial65_0,0,0,0,121.779249,True,3.241
35,0,25-Feb-2018,1,2,65,Sub35_Trial65_0,0,1,1,71.26977,True,3.241
35,0,25-Feb-2018,1,2,65,Sub35_Trial65_0,0,2,2,68.399493,True,3.241
35,0,25-Feb-2018,1,2,65,Sub35_Trial65_0,0,3,3,-119.939321,True,3.241
35,0,25-Feb-2018,1,2,65,Sub35_Trial65_0,0,4,4,112.267741,True,3.241
35,0,25-Feb-2018,1,2,65,Sub35_Trial65_0,0,5,5,7.817662,True,3.241
35,0,25-Feb-2018,1,2,65,Sub35_Trial65_0,0,6,6,74.521889,True,3.241
35,0,25-Feb-2018,1,2,65,Sub35_Trial65_1,1,0,0,-6.426974,False,3.241
35,0,25-Feb-2018,1,2,65,Sub35_Trial65_1,1,1,1,24.633108,False,3.241
35,0,25-Feb-2018,1,2,65,Sub35_Trial65_1,1,2,2,21.304635,False,3.241
35,0,25-Feb-2018,1,2,65,Sub35_Trial65_1,1,3,3,59.535122,False,3.241
35,0,25-Feb-2018,1,2,65,Sub35_Trial65_1,1,4,4,35.171674,False,3.241
35,0,25-Feb-2018,1,2,65,Sub35_Trial65_1,1,5,5,17.753822,False,3.241
35,0,25-Feb-2018,1,2,65,Sub35_Trial65_1,1,6,6,-184.991047,False,3.241
35,0,25-Feb-2018,1,2,66,Sub35_Trial66_0,0,0,0,129.099944,True,0.971
35,0,25-Feb-2018,1,2,66,Sub35_Trial66_0,0,1,1,9.50552,True,0.971
35,0,25-Feb-2018,1,2,66,Sub35_Trial66_0,0,2,2,41.982348,True,0.971
35,0,25-Feb-2018,1,2,66,Sub35_Trial66_0,0,3,3,-144.296362,True,0.971
35,0,25-Feb-2018,1,2,66,Sub35_Trial66_0,0,4,4,63.959414,True,0.971
35,0,25-Feb-2018,1,2,66,Sub35_Trial66_0,0,5,5,111.637291,True,0.971
35,0,25-Feb-2018,1,2,66,Sub35_Trial66_0,0,6,6,-8.123923,True,0.971
35,0,25-Feb-2018,1,2,66,Sub35_Trial66_1,1,0,0,-79.80497,False,0.971
35,0,25-Feb-2018,1,2,66,Sub35_Trial66_1,1,1,1,-121.198148,False,0.971
35,0,25-Feb-2018,1,2,66,Sub35_Trial66_1,1,2,2,-52.937422,False,0.971
35,0,25-Feb-2018,1,2,66,Sub35_Trial66_1,1,3,3,-7.653407,False,0.971
35,0,25-Feb-2018,1,2,66,Sub35_Trial66_1,1,4,4,-83.601818,False,0.971
35,0,25-Feb-2018,1,2,66,Sub35_Trial66_1,1,5,5,-93.360277,False,0.971
35,0,25-Feb-2018,1,2,66,Sub35_Trial66_1,1,6,6,72.007947,False,0.971
35,0,25-Feb-2018,1,2,67,Sub35_Trial67_0,0,0,0,-44.236806,True,2.726
35,0,25-Feb-2018,1,2,67,Sub35_Trial67_0,0,1,1,73.953316,True,2.726
35,0,25-Feb-2018,1,2,67,Sub35_Trial67_0,0,2,2,23.841248,True,2.726
35,0,25-Feb-2018,1,2,67,Sub35_Trial67_0,0,3,3,10.672197,True,2.726
35,0,25-Feb-2018,1,2,67,Sub35_Trial67_0,0,4,4,-14.142819,True,2.726
35,0,25-Feb-2018,1,2,67,Sub35_Trial67_0,0,5,5,4.202676,True,2.726
35,0,25-Feb-2018,1,2,67,Sub35_Trial67_0,0,6,6,-72.986009,True,2.726
35,0,25-Feb-2018,1,2,67,Sub35_Trial67_1,1,0,0,-70.224028,False,2.726
35,0,25-Feb-2018,1,2,67,Sub35_Trial67_1,1,1,1,-48.293849,False,2.726
35,0,25-Feb-2018,1,2,67,Sub35_Trial67_1,1,2,2,-23.967791,False,2.726
35,0,25-Feb-2018,1,2,67,Sub35_Trial67_1,1,3,3,23.080769,False,2.726
35,0,25-Feb-2018,1,2,67,Sub35_Trial67_1,1,4,4,-35.772015,False,2.726
35,0,25-Feb-2018,1,2,67,Sub35_Trial67_1,1,5,5,23.132889,False,2.726
35,0,25-Feb-2018,1,2,67,Sub35_Trial67_1,1,6,6,-104.864205,False,2.726
35,0,25-Feb-2018,1,2,68,Sub35_Trial68_0,0,0,0,8.196702,False,0.752
35,0,25-Feb-2018,1,2,68,Sub35_Trial68_0,0,1,1,19.543156,False,0.752
35,0,25-Feb-2018,1,2,68,Sub35_Trial68_0,0,2,2,41.970004,False,0.752
35,0,25-Feb-2018,1,2,68,Sub35_Trial68_0,0,3,3,-165.998618,False,0.752
35,0,25-Feb-2018,1,2,68,Sub35_Trial68_0,0,4,4,-17.316156,False,0.752
35,0,25-Feb-2018,1,2,68,Sub35_Trial68_0,0,5,5,-40.102763,False,0.752
35,0,25-Feb-2018,1,2,68,Sub35_Trial68_0,0,6,6,-102.111783,False,0.752
35,0,25-Feb-2018,1,2,68,Sub35_Trial68_1,1,0,0,17.084741,True,0.752
35,0,25-Feb-2018,1,2,68,Sub35_Trial68_1,1,1,1,-85.996217,True,0.752
35,0,25-Feb-2018,1,2,68,Sub35_Trial68_1,1,2,2,-54.258633,True,0.752
35,0,25-Feb-2018,1,2,68,Sub35_Trial68_1,1,3,3,-55.338967,True,0.752
35,0,25-Feb-2018,1,2,68,Sub35_Trial68_1,1,4,4,15.641268,True,0.752
35,0,25-Feb-2018,1,2,68,Sub35_Trial68_1,1,5,5,80.663221,True,0.752
35,0,25-Feb-2018,1,2,68,Sub35_Trial68_1,1,6,6,27.202533,True,0.752
35,0,25-Feb-2018,1,2,69,Sub35_Trial69_0,0,0,0,84.248156,False,0.769
35,0,25-Feb-2018,1,2,69,Sub35_Trial69_0,0,1,1,30.614882,False,0.769
35,0,25-Feb-2018,1,2,69,Sub35_Trial69_0,0,2,2,5.503528,False,0.769
35,0,25-Feb-2018,1,2,69,Sub35_Trial69_0,0,3,3,106.944516,False,0.769
35,0,25-Feb-2018,1,2,69,Sub35_Trial69_0,0,4,4,-19.15827,False,0.769
35,0,25-Feb-2018,1,2,69,Sub35_Trial69_0,0,5,5,13.876953,False,0.769
35,0,25-Feb-2018,1,2,69,Sub35_Trial69_0,0,6,6,2.094021,False,0.769
35,0,25-Feb-2018,1,2,69,Sub35_Trial69_1,1,0,0,-17.075502,True,0.769
35,0,25-Feb-2018,1,2,69,Sub35_Trial69_1,1,1,1,-139.6503,True,0.769
35,0,25-Feb-2018,1,2,69,Sub35_Trial69_1,1,2,2,77.074082,True,0.769
35,0,25-Feb-2018,1,2,69,Sub35_Trial69_1,1,3,3,3.475193,True,0.769
35,0,25-Feb-2018,1,2,69,Sub35_Trial69_1,1,4,4,73.960092,True,0.769
35,0,25-Feb-2018,1,2,69,Sub35_Trial69_1,1,5,5,111.424493,True,0.769
35,0,25-Feb-2018,1,2,69,Sub35_Trial69_1,1,6,6,79.365773,True,0.769
35,0,25-Feb-2018,1,2,70,Sub35_Trial70_0,0,0,0,-7.1806,False,3.124
35,0,25-Feb-2018,1,2,70,Sub35_Trial70_0,0,1,1,23.455251,False,3.124
35,0,25-Feb-2018,1,2,70,Sub35_Trial70_0,0,2,2,-86.999203,False,3.124
35,0,25-Feb-2018,1,2,70,Sub35_Trial70_0,0,3,3,117.224222,False,3.124
35,0,25-Feb-2018,1,2,70,Sub35_Trial70_0,0,4,4,-99.074815,False,3.124
35,0,25-Feb-2018,1,2,70,Sub35_Trial70_0,0,5,5,7.921179,False,3.124
35,0,25-Feb-2018,1,2,70,Sub35_Trial70_0,0,6,6,-16.102392,False,3.124
35,0,25-Feb-2018,1,2,70,Sub35_Trial70_1,1,0,0,-4.64981,True,3.124
35,0,25-Feb-2018,1,2,70,Sub35_Trial70_1,1,1,1,-0.438573,True,3.124
35,0,25-Feb-2018,1,2,70,Sub35_Trial70_1,1,2,2,-0.781263,True,3.124
35,0,25-Feb-2018,1,2,70,Sub35_Trial70_1,1,3,3,24.487642,True,3.124
35,0,25-Feb-2018,1,2,70,Sub35_Trial70_1,1,4,4,38.45061,True,3.124
35,0,25-Feb-2018,1,2,70,Sub35_Trial70_1,1,5,5,-9.40186,True,3.124
35,0,25-Feb-2018,1,2,70,Sub35_Trial70_1,1,6,6,-38.584265,True,3.124
35,0,25-Feb-2018,1,2,71,Sub35_Trial71_0,0,0,0,-37.465813,False,0.6
35,0,25-Feb-2018,1,2,71,Sub35_Trial71_0,0,1,1,28.115844,False,0.6
35,0,25-Feb-2018,1,2,71,Sub35_Trial71_0,0,2,2,-2.78789,False,0.6
35,0,25-Feb-2018,1,2,71,Sub35_Trial71_0,0,3,3,-17.297815,False,0.6
35,0,25-Feb-2018,1,2,71,Sub35_Trial71_0,0,4,4,-71.802433,False,0.6
35,0,25-Feb-2018,1,2,71,Sub35_Trial71_0,0,5,5,-28.54455,False,0.6
35,0,25-Feb-2018,1,2,71,Sub35_Trial71_0,0,6,6,-4.688888,False,0.6
35,0,25-Feb-2018,1,2,71,Sub35_Trial71_1,1,0,0,-103.233617,True,0.6
35,0,25-Feb-2018,1,2,71,Sub35_Trial71_1,1,1,1,123.176936,True,0.6
35,0,25-Feb-2018,1,2,71,Sub35_Trial71_1,1,2,2,2.582662,True,0.6
35,0,25-Feb-2018,1,2,71,Sub35_Trial71_1,1,3,3,64.187582,True,0.6
35,0,25-Feb-2018,1,2,71,Sub35_Trial71_1,1,4,4,-41.036903,True,0.6
35,0,25-Feb-2018,1,2,71,Sub35_Trial71_1,1,5,5,69.57539,True,0.6
35,0,25-Feb-2018,1,2,71,Sub35_Trial71_1,1,6,6,-53.260128,True,0.6
35,0,25-Feb-2018,1,2,72,Sub35_Trial72_0,0,0,0,42.986703,True,2.452
35,0,25-Feb-2018,1,2,72,Sub35_Trial72_0,0,1,1,104.101689,True,2.452
35,0,25-Feb-2018,1,2,72,Sub35_Trial72_0,0,2,2,105.520224,True,2.452
35,0,25-Feb-2018,1,2,72,Sub35_Trial72_0,0,3,3,-44.889077,True,2.452
35,0,25-Feb-2018,1,2,72,Sub35_Trial72_0,0,4,4,33.973033,True,2.452
35,0,25-Feb-2018,1,2,72,Sub35_Trial72_0,0,5,5,-123.030699,True,2.452
35,0,25-Feb-2018,1,2,72,Sub35_Trial72_0,0,6,6,-9.960798,True,2.452
35,0,25-Feb-2018,1,2,72,Sub35_Trial72_1,1,0,0,87.864372,False,2.452
35,0,25-Feb-2018,1,2,72,Sub35_Trial72_1,1,1,1,52.945562,False,2.452
35,0,25-Feb-2018,1,2,72,Sub35_Trial72_1,1,2,2,-112.25243,False,2.452
35,0,25-Feb-2018,1,2,72,Sub35_Trial72_1,1,3,3,104.511672,False,2.452
35,0,25-Feb-2018,1,2,72,Sub35_Trial72_1,1,4,4,-165.265076,False,2.452
35,0,25-Feb-2018,1,2,72,Sub35_Trial72_1,1,5,5,-112.850194,False,2.452
35,0,25-Feb-2018,1,2,72,Sub35_Trial72_1,1,6,6,63.414529,False,2.452
35,0,25-Feb-2018,1,2,73,Sub35_Trial73_0,0,0,0,79.121124,True,2.943
35,0,25-Feb-2018,1,2,73,Sub35_Trial73_0,0,1,1,-65.205308,True,2.943
35,0,25-Feb-2018,1,2,73,Sub35_Trial73_0,0,2,2,160.301768,True,2.943
35,0,25-Feb-2018,1,2,73,Sub35_Trial73_0,0,3,3,18.701073,True,2.943
35,0,25-Feb-2018,1,2,73,Sub35_Trial73_0,0,4,4,10.746573,True,2.943
35,0,25-Feb-2018,1,2,73,Sub35_Trial73_0,0,5,5,150.710427,True,2.943
35,0,25-Feb-2018,1,2,73,Sub35_Trial73_0,0,6,6,-31.633164,True,2.943
35,0,25-Feb-2018,1,2,73,Sub35_Trial73_1,1,0,0,70.675571,False,2.943
35,0,25-Feb-2018,1,2,73,Sub35_Trial73_1,1,1,1,30.493103,False,2.943
35,0,25-Feb-2018,1,2,73,Sub35_Trial73_1,1,2,2,69.69346,False,2.943
35,0,25-Feb-2018,1,2,73,Sub35_Trial73_1,1,3,3,31.598953,False,2.943
35,0,25-Feb-2018,1,2,73,Sub35_Trial73_1,1,4,4,93.160523,False,2.943
35,0,25-Feb-2018,1,2,73,Sub35_Trial73_1,1,5,5,93.501569,False,2.943
35,0,25-Feb-2018,1,2,73,Sub35_Trial73_1,1,6,6,34.751834,False,2.943
35,0,25-Feb-2018,1,2,74,Sub35_Trial74_0,0,0,0,44.492224,True,2.073
35,0,25-Feb-2018,1,2,74,Sub35_Trial74_0,0,1,1,-126.783467,True,2.073
35,0,25-Feb-2018,1,2,74,Sub35_Trial74_0,0,2,2,-87.256073,True,2.073
35,0,25-Feb-2018,1,2,74,Sub35_Trial74_0,0,3,3,-133.081393,True,2.073
35,0,25-Feb-2018,1,2,74,Sub35_Trial74_0,0,4,4,-119.761457,True,2.073
35,0,25-Feb-2018,1,2,74,Sub35_Trial74_0,0,5,5,-37.463444,True,2.073
35,0,25-Feb-2018,1,2,74,Sub35_Trial74_0,0,6,6,109.872991,True,2.073
35,0,25-Feb-2018,1,2,74,Sub35_Trial74_1,1,0,0,21.653052,False,2.073
35,0,25-Feb-2018,1,2,74,Sub35_Trial74_1,1,1,1,-32.822317,False,2.073
35,0,25-Feb-2018,1,2,74,Sub35_Trial74_1,1,2,2,93.979256,False,2.073
35,0,25-Feb-2018,1,2,74,Sub35_Trial74_1,1,3,3,-63.235708,False,2.073
35,0,25-Feb-2018,1,2,74,Sub35_Trial74_1,1,4,4,-11.430012,False,2.073
35,0,25-Feb-2018,1,2,74,Sub35_Trial74_1,1,5,5,6.165092,False,2.073
35,0,25-Feb-2018,1,2,74,Sub35_Trial74_1,1,6,6,23.906692,False,2.073
35,0,25-Feb-2018,1,2,75,Sub35_Trial75_0,0,0,0,-117.006159,True,2.374
35,0,25-Feb-2018,1,2,75,Sub35_Trial75_0,0,1,1,134.15933,True,2.374
35,0,25-Feb-2018,1,2,75,Sub35_Trial75_0,0,2,2,74.224733,True,2.374
35,0,25-Feb-2018,1,2,75,Sub35_Trial75_0,0,3,3,87.6384,True,2.374
35,0,25-Feb-2018,1,2,75,Sub35_Trial75_0,0,4,4,-31.908435,True,2.374
35,0,25-Feb-2018,1,2,75,Sub35_Trial75_0,0,5,5,-66.288768,True,2.374
35,0,25-Feb-2018,1,2,75,Sub35_Trial75_0,0,6,6,-139.3105,True,2.374
35,0,25-Feb-2018,1,2,75,Sub35_Trial75_1,1,0,0,36.620291,False,2.374
35,0,25-Feb-2018,1,2,75,Sub35_Trial75_1,1,1,1,54.686999,False,2.374
35,0,25-Feb-2018,1,2,75,Sub35_Trial75_1,1,2,2,44.742273,False,2.374
35,0,25-Feb-2018,1,2,75,Sub35_Trial75_1,1,3,3,82.573605,False,2.374
35,0,25-Feb-2018,1,2,75,Sub35_Trial75_1,1,4,4,-5.652928,False,2.374
35,0,25-Feb-2018,1,2,75,Sub35_Trial75_1,1,5,5,-85.566903,False,2.374
35,0,25-Feb-2018,1,2,75,Sub35_Trial75_1,1,6,6,149.608211,False,2.374
35,0,25-Feb-2018,1,2,76,Sub35_Trial76_0,0,0,0,-99.840011,False,0.919
35,0,25-Feb-2018,1,2,76,Sub35_Trial76_0,0,1,1,-126.390216,False,0.919
35,0,25-Feb-2018,1,2,76,Sub35_Trial76_0,0,2,2,-21.085142,False,0.919
35,0,25-Feb-2018,1,2,76,Sub35_Trial76_0,0,3,3,-135.566604,False,0.919
35,0,25-Feb-2018,1,2,76,Sub35_Trial76_0,0,4,4,-18.584813,False,0.919
35,0,25-Feb-2018,1,2,76,Sub35_Trial76_0,0,5,5,-2.027313,False,0.919
35,0,25-Feb-2018,1,2,76,Sub35_Trial76_0,0,6,6,107.638342,False,0.919
35,0,25-Feb-2018,1,2,76,Sub35_Trial76_1,1,0,0,-0.900466,True,0.919
35,0,25-Feb-2018,1,2,76,Sub35_Trial76_1,1,1,1,77.513567,True,0.919
35,0,25-Feb-2018,1,2,76,Sub35_Trial76_1,1,2,2,-71.815476,True,0.919
35,0,25-Feb-2018,1,2,76,Sub35_Trial76_1,1,3,3,131.807908,True,0.919
35,0,25-Feb-2018,1,2,76,Sub35_Trial76_1,1,4,4,-94.052426,True,0.919
35,0,25-Feb-2018,1,2,76,Sub35_Trial76_1,1,5,5,76.874274,True,0.919
35,0,25-Feb-2018,1,2,76,Sub35_Trial76_1,1,6,6,-74.005953,True,0.919
35,0,25-Feb-2018,1,2,77,Sub35_Trial77_0,0,0,0,-121.609109,True,3.119
35,0,25-Feb-2018,1,2,77,Sub35_Trial77_0,0,1,1,116.792442,True,3.119
35,0,25-Feb-2018,1,2,77,Sub35_Trial77_0,0,2,2,-128.421024,True,3.119
35,0,25-Feb-2018,1,2,77,Sub35_Trial77_0,0,3,3,-82.384103,True,3.119
35,0,25-Feb-2018,1,2,77,Sub35_Trial77_0,0,4,4,-141.483182,True,3.119
35,0,25-Feb-2018,1,2,77,Sub35_Trial77_0,0,5,5,-47.505005,True,3.119
35,0,25-Feb-2018,1,2,77,Sub35_Trial77_0,0,6,6,183.29867,True,3.119
35,0,25-Feb-2018,1,2,77,Sub35_Trial77_1,1,0,0,34.106278,False,3.119
35,0,25-Feb-2018,1,2,77,Sub35_Trial77_1,1,1,1,8.848921,False,3.119
35,0,25-Feb-2018,1,2,77,Sub35_Trial77_1,1,2,2,56.314095,False,3.119
35,0,25-Feb-2018,1,2,77,Sub35_Trial77_1,1,3,3,53.116436,False,3.119
35,0,25-Feb-2018,1,2,77,Sub35_Trial77_1,1,4,4,6.334802,False,3.119
35,0,25-Feb-2018,1,2,77,Sub35_Trial77_1,1,5,5,-28.821318,False,3.119
35,0,25-Feb-2018,1,2,77,Sub35_Trial77_1,1,6,6,90.867098,False,3.119
35,0,25-Feb-2018,1,2,78,Sub35_Trial78_0,0,0,0,146.850626,True,2.242
35,0,25-Feb-2018,1,2,78,Sub35_Trial78_0,0,1,1,67.177403,True,2.242
35,0,25-Feb-2018,1,2,78,Sub35_Trial78_0,0,2,2,-54.868656,True,2.242
35,0,25-Feb-2018,1,2,78,Sub35_Trial78_0,0,3,3,-58.838548,True,2.242
35,0,25-Feb-2018,1,2,78,Sub35_Trial78_0,0,4,4,93.022083,True,2.242
35,0,25-Feb-2018,1,2,78,Sub35_Trial78_0,0,5,5,107.088735,True,2.242
35,0,25-Feb-2018,1,2,78,Sub35_Trial78_0,0,6,6,59.967893,True,2.242
35,0,25-Feb-2018,1,2,78,Sub35_Trial78_1,1,0,0,-14.890952,False,2.242
35,0,25-Feb-2018,1,2,78,Sub35_Trial78_1,1,1,1,45.690218,False,2.242
35,0,25-Feb-2018,1,2,78,Sub35_Trial78_1,1,2,2,-18.546764,False,2.242
35,0,25-Feb-2018,1,2,78,Sub35_Trial78_1,1,3,3,-105.031399,False,2.242
35,0,25-Feb-2018,1,2,78,Sub35_Trial78_1,1,4,4,68.316562,False,2.242
35,0,25-Feb-2018,1,2,78,Sub35_Trial78_1,1,5,5,125.111516,False,2.242
35,0,25-Feb-2018,1,2,78,Sub35_Trial78_1,1,6,6,76.97486,False,2.242
35,0,25-Feb-2018,1,2,79,Sub35_Trial79_0,0,0,0,116.994113,True,1.158
35,0,25-Feb-2018,1,2,79,Sub35_Trial79_0,0,1,1,-14.862174,True,1.158
35,0,25-Feb-2018,1,2,79,Sub35_Trial79_0,0,2,2,179.274132,True,1.158
35,0,25-Feb-2018,1,2,79,Sub35_Trial79_0,0,3,3,10.197814,True,1.158
35,0,25-Feb-2018,1,2,79,Sub35_Trial79_0,0,4,4,-95.20218,True,1.158
35,0,25-Feb-2018,1,2,79,Sub35_Trial79_0,0,5,5,67.036688,True,1.158
35,0,25-Feb-2018,1,2,79,Sub35_Trial79_0,0,6,6,-138.487235,True,1.158
35,0,25-Feb-2018,1,2,79,Sub35_Trial79_1,1,0,0,-99.736306,False,1.158
35,0,25-Feb-2018,1,2,79,Sub35_Trial79_1,1,1,1,-71.204017,False,1.158
35,0,25-Feb-2018,1,2,79,Sub35_Trial79_1,1,2,2,122.258872,False,1.158
35,0,25-Feb-2018,1,2,79,Sub35_Trial79_1,1,3,3,-86.922052,False,1.158
35,0,25-Feb-2018,1,2,79,Sub35_Trial79_1,1,4,4,36.868548,False,1.158
35,0,25-Feb-2018,1,2,79,Sub35_Trial79_1,1,5,5,-41.810264,False,1.158
35,0,25-Feb-2018,1,2,79,Sub35_Trial79_1,1,6,6,-112.519476,False,1.158
35,0,25-Feb-2018,1,2,80,Sub35_Trial80_0,0,0,0,18.877534,True,2.62
35,0,25-Feb-2018,1,2,80,Sub35_Trial80_0,0,1,1,-17.016298,True,2.62
35,0,25-Feb-2018,1,2,80,Sub35_Trial80_0,0,2,2,-50.635485,True,2.62
35,0,25-Feb-2018,1,2,80,Sub35_Trial80_0,0,3,3,119.44832,True,2.62
35,0,25-Feb-2018,1,2,80,Sub35_Trial80_0,0,4,4,10.146776,True,2.62
35,0,25-Feb-2018,1,2,80,Sub35_Trial80_0,0,5,5,-0.336622,True,2.62
35,0,25-Feb-2018,1,2,80,Sub35_Trial80_0,0,6,6,40.006758,True,2.62
35,0,25-Feb-2018,1,2,80,Sub35_Trial80_1,1,0,0,-30.598104,False,2.62
35,0,25-Feb-2018,1,2,80,Sub35_Trial80_1,1,1,1,77.198513,False,2.62
35,0,25-Feb-2018,1,2,80,Sub35_Trial80_1,1,2,2,163.709276,False,2.62
35,0,25-Feb-2018,1,2,80,Sub35_Trial80_1,1,3,3,-64.309205,False,2.62
35,0,25-Feb-2018,1,2,80,Sub35_Trial80_1,1,4,4,10.496906,False,2.62
35,0,25-Feb-2018,1,2,80,Sub35_Trial80_1,1,5,5,7.59643,False,2.62
35,0,25-Feb-2018,1,2,80,Sub35_Trial80_1,1,6,6,89.874824,False,2.62
35,0,25-Feb-2018,1,2,81,Sub35_Trial81_0,0,0,0,-4.74956,False,1.036
35,0,25-Feb-2018,1,2,81,Sub35_Trial81_0,0,1,1,16.38669,False,1.036
35,0,25-Feb-2018,1,2,81,Sub35_Trial81_0,0,2,2,55.680841,False,1.036
35,0,25-Feb-2018,1,2,81,Sub35_Trial81_0,0,3,3,-192.279998,False,1.036
35,0,25-Feb-2018,1,2,81,Sub35_Trial81_0,0,4,4,184.174729,False,1.036
35,0,25-Feb-2018,1,2,81,Sub35_Trial81_0,0,5,5,-108.390652,False,1.036
35,0,25-Feb-2018,1,2,81,Sub35_Trial81_0,0,6,6,-74.330054,False,1.036
35,0,25-Feb-2018,1,2,81,Sub35_Trial81_1,1,0,0,67.819572,True,1.036
35,0,25-Feb-2018,1,2,81,Sub35_Trial81_1,1,1,1,40.505923,True,1.036
35,0,25-Feb-2018,1,2,81,Sub35_Trial81_1,1,2,2,128.594815,True,1.036
35,0,25-Feb-2018,1,2,81,Sub35_Trial81_1,1,3,3,44.819043,True,1.036
35,0,25-Feb-2018,1,2,81,Sub35_Trial81_1,1,4,4,-115.12552,True,1.036
35,0,25-Feb-2018,1,2,81,Sub35_Trial81_1,1,5,5,85.321496,True,1.036
35,0,25-Feb-2018,1,2,81,Sub35_Trial81_1,1,6,6,28.281197,True,1.036
35,0,25-Feb-2018,1,2,82,Sub35_Trial82_0,0,0,0,-9.560946,False,1.209
35,0,25-Feb-2018,1,2,82,Sub35_Trial82_0,0,1,1,65.237347,False,1.209
35,0,25-Feb-2018,1,2,82,Sub35_Trial82_0,0,2,2,9.963814,False,1.209
35,0,25-Feb-2018,1,2,82,Sub35_Trial82_0,0,3,3,-195.712576,False,1.209
35,0,25-Feb-2018,1,2,82,Sub35_Trial82_0,0,4,4,-98.058962,False,1.209
35,0,25-Feb-2018,1,2,82,Sub35_Trial82_0,0,5,5,75.438145,False,1.209
35,0,25-Feb-2018,1,2,82,Sub35_Trial82_0,0,6,6,65.897865,False,1.209
35,0,25-Feb-2018,1,2,82,Sub35_Trial82_1,1,0,0,-34.724538,True,1.209
35,0,25-Feb-2018,1,2,82,Sub35_Trial82_1,1,1,1,-36.287922,True,1.209
35,0,25-Feb-2018,1,2,82,Sub35_Trial82_1,1,2,2,-27.694745,True,1.209
35,0,25-Feb-2018,1,2,82,Sub35_Trial82_1,1,3,3,-42.766824,True,1.209
35,0,25-Feb-2018,1,2,82,Sub35_Trial82_1,1,4,4,136.637932,True,1.209
35,0,25-Feb-2018,1,2,82,Sub35_Trial82_1,1,5,5,67.090184,True,1.209
35,0,25-Feb-2018,1,2,82,Sub35_Trial82_1,1,6,6,-44.73478,True,1.209
35,0,25-Feb-2018,1,2,83,Sub35_Trial83_0,0,0,0,-151.31844,True,2.715
35,0,25-Feb-2018,1,2,83,Sub35_Trial83_0,0,1,1,-78.784036,True,2.715
35,0,25-Feb-2018,1,2,83,Sub35_Trial83_0,0,2,2,42.112513,True,2.715
35,0,25-Feb-2018,1,2,83,Sub35_Trial83_0,0,3,3,-23.084651,True,2.715
35,0,25-Feb-2018,1,2,83,Sub35_Trial83_0,0,4,4,85.384886,True,2.715
35,0,25-Feb-2018,1,2,83,Sub35_Trial83_0,0,5,5,-10.761623,True,2.715
35,0,25-Feb-2018,1,2,83,Sub35_Trial83_0,0,6,6,-41.175351,True,2.715
35,0,25-Feb-2018,1,2,83,Sub35_Trial83_1,1,0,0,-37.929373,False,2.715
35,0,25-Feb-2018,1,2,83,Sub35_Trial83_1,1,1,1,93.791731,False,2.715
35,0,25-Feb-2018,1,2,83,Sub35_Trial83_1,1,2,2,-90.95359,False,2.715
35,0,25-Feb-2018,1,2,83,Sub35_Trial83_1,1,3,3,107.032956,False,2.715
35,0,25-Feb-2018,1,2,83,Sub35_Trial83_1,1,4,4,93.036602,False,2.715
35,0,25-Feb-2018,1,2,83,Sub35_Trial83_1,1,5,5,-86.113559,False,2.715
35,0,25-Feb-2018,1,2,83,Sub35_Trial83_1,1,6,6,-59.575104,False,2.715
35,0,25-Feb-2018,1,2,84,Sub35_Trial84_0,0,0,0,-6.261874,True,2.411
35,0,25-Feb-2018,1,2,84,Sub35_Trial84_0,0,1,1,-86.788225,True,2.411
35,0,25-Feb-2018,1,2,84,Sub35_Trial84_0,0,2,2,50.228626,True,2.411
35,0,25-Feb-2018,1,2,84,Sub35_Trial84_0,0,3,3,93.36415,True,2.411
35,0,25-Feb-2018,1,2,84,Sub35_Trial84_0,0,4,4,-38.531471,True,2.411
35,0,25-Feb-2018,1,2,84,Sub35_Trial84_0,0,5,5,5.220798,True,2.411
35,0,25-Feb-2018,1,2,84,Sub35_Trial84_0,0,6,6,51.59268,True,2.411
35,0,25-Feb-2018,1,2,84,Sub35_Trial84_1,1,0,0,127.532694,False,2.411
35,0,25-Feb-2018,1,2,84,Sub35_Trial84_1,1,1,1,37.756144,False,2.411
35,0,25-Feb-2018,1,2,84,Sub35_Trial84_1,1,2,2,-107.896183,False,2.411
35,0,25-Feb-2018,1,2,84,Sub35_Trial84_1,1,3,3,52.790428,False,2.411
35,0,25-Feb-2018,1,2,84,Sub35_Trial84_1,1,4,4,7.421549,False,2.411
35,0,25-Feb-2018,1,2,84,Sub35_Trial84_1,1,5,5,-83.285487,False,2.411
35,0,25-Feb-2018,1,2,84,Sub35_Trial84_1,1,6,6,-167.839469,False,2.411
35,0,25-Feb-2018,1,2,85,Sub35_Trial85_0,0,0,0,91.286507,True,0.807
35,0,25-Feb-2018,1,2,85,Sub35_Trial85_0,0,1,1,80.534931,True,0.807
35,0,25-Feb-2018,1,2,85,Sub35_Trial85_0,0,2,2,85.117629,True,0.807
35,0,25-Feb-2018,1,2,85,Sub35_Trial85_0,0,3,3,64.655195,True,0.807
35,0,25-Feb-2018,1,2,85,Sub35_Trial85_0,0,4,4,182.382077,True,0.807
35,0,25-Feb-2018,1,2,85,Sub35_Trial85_0,0,5,5,-21.414145,True,0.807
35,0,25-Feb-2018,1,2,85,Sub35_Trial85_0,0,6,6,-17.58622,True,0.807
35,0,25-Feb-2018,1,2,85,Sub35_Trial85_1,1,0,0,93.031089,False,0.807
35,0,25-Feb-2018,1,2,85,Sub35_Trial85_1,1,1,1,87.62117,False,0.807
35,0,25-Feb-2018,1,2,85,Sub35_Trial85_1,1,2,2,57.497315,False,0.807
35,0,25-Feb-2018,1,2,85,Sub35_Trial85_1,1,3,3,-17.223521,False,0.807
35,0,25-Feb-2018,1,2,85,Sub35_Trial85_1,1,4,4,-95.956931,False,0.807
35,0,25-Feb-2018,1,2,85,Sub35_Trial85_1,1,5,5,86.817665,False,0.807
35,0,25-Feb-2018,1,2,85,Sub35_Trial85_1,1,6,6,107.373584,False,0.807
35,0,25-Feb-2018,1,2,86,Sub35_Trial86_0,0,0,0,11.263384,True,0.911
35,0,25-Feb-2018,1,2,86,Sub35_Trial86_0,0,1,1,-8.177245,True,0.911
35,0,25-Feb-2018,1,2,86,Sub35_Trial86_0,0,2,2,-13.573733,True,0.911
35,0,25-Feb-2018,1,2,86,Sub35_Trial86_0,0,3,3,111.501701,True,0.911
35,0,25-Feb-2018,1,2,86,Sub35_Trial86_0,0,4,4,-41.435442,True,0.911
35,0,25-Feb-2018,1,2,86,Sub35_Trial86_0,0,5,5,-0.091907,True,0.911
35,0,25-Feb-2018,1,2,86,Sub35_Trial86_0,0,6,6,-115.675953,True,0.911
35,0,25-Feb-2018,1,2,86,Sub35_Trial86_1,1,0,0,-98.313386,False,0.911
35,0,25-Feb-2018,1,2,86,Sub35_Trial86_1,1,1,1,-183.463853,False,0.911
35,0,25-Feb-2018,1,2,86,Sub35_Trial86_1,1,2,2,158.887379,False,0.911
35,0,25-Feb-2018,1,2,86,Sub35_Trial86_1,1,3,3,-89.283471,False,0.911
35,0,25-Feb-2018,1,2,86,Sub35_Trial86_1,1,4,4,-175.486862,False,0.911
35,0,25-Feb-2018,1,2,86,Sub35_Trial86_1,1,5,5,-159.041348,False,0.911
35,0,25-Feb-2018,1,2,86,Sub35_Trial86_1,1,6,6,-58.960129,False,0.911
35,0,25-Feb-2018,1,2,87,Sub35_Trial87_0,0,0,0,103.671098,False,5.047
35,0,25-Feb-2018,1,2,87,Sub35_Trial87_0,0,1,1,-66.305221,False,5.047
35,0,25-Feb-2018,1,2,87,Sub35_Trial87_0,0,2,2,-96.166109,False,5.047
35,0,25-Feb-2018,1,2,87,Sub35_Trial87_0,0,3,3,-114.379372,False,5.047
35,0,25-Feb-2018,1,2,87,Sub35_Trial87_0,0,4,4,-32.885182,False,5.047
35,0,25-Feb-2018,1,2,87,Sub35_Trial87_0,0,5,5,-89.776505,False,5.047
35,0,25-Feb-2018,1,2,87,Sub35_Trial87_0,0,6,6,-108.514332,False,5.047
35,0,25-Feb-2018,1,2,87,Sub35_Trial87_1,1,0,0,-177.619975,True,5.047
35,0,25-Feb-2018,1,2,87,Sub35_Trial87_1,1,1,1,-70.034335,True,5.047
35,0,25-Feb-2018,1,2,87,Sub35_Trial87_1,1,2,2,-149.155794,True,5.047
35,0,25-Feb-2018,1,2,87,Sub35_Trial87_1,1,3,3,70.462937,True,5.047
35,0,25-Feb-2018,1,2,87,Sub35_Trial87_1,1,4,4,-30.78801,True,5.047
35,0,25-Feb-2018,1,2,87,Sub35_Trial87_1,1,5,5,-59.774874,True,5.047
35,0,25-Feb-2018,1,2,87,Sub35_Trial87_1,1,6,6,-20.345874,True,5.047
35,0,25-Feb-2018,1,2,88,Sub35_Trial88_0,0,0,0,37.82888,True,1.295
35,0,25-Feb-2018,1,2,88,Sub35_Trial88_0,0,1,1,-106.870509,True,1.295
35,0,25-Feb-2018,1,2,88,Sub35_Trial88_0,0,2,2,-168.856424,True,1.295
35,0,25-Feb-2018,1,2,88,Sub35_Trial88_0,0,3,3,-4.144862,True,1.295
35,0,25-Feb-2018,1,2,88,Sub35_Trial88_0,0,4,4,95.358562,True,1.295
35,0,25-Feb-2018,1,2,88,Sub35_Trial88_0,0,5,5,37.975843,True,1.295
35,0,25-Feb-2018,1,2,88,Sub35_Trial88_0,0,6,6,-96.852851,True,1.295
35,0,25-Feb-2018,1,2,88,Sub35_Trial88_1,1,0,0,-127.061897,False,1.295
35,0,25-Feb-2018,1,2,88,Sub35_Trial88_1,1,1,1,67.876441,False,1.295
35,0,25-Feb-2018,1,2,88,Sub35_Trial88_1,1,2,2,-0.660793,False,1.295
35,0,25-Feb-2018,1,2,88,Sub35_Trial88_1,1,3,3,-37.270656,False,1.295
35,0,25-Feb-2018,1,2,88,Sub35_Trial88_1,1,4,4,-10.044106,False,1.295
35,0,25-Feb-2018,1,2,88,Sub35_Trial88_1,1,5,5,-84.736315,False,1.295
35,0,25-Feb-2018,1,2,88,Sub35_Trial88_1,1,6,6,57.984734,False,1.295
35,0,25-Feb-2018,1,2,89,Sub35_Trial89_0,0,0,0,92.261678,True,1.482
35,0,25-Feb-2018,1,2,89,Sub35_Trial89_0,0,1,1,10.786215,True,1.482
35,0,25-Feb-2018,1,2,89,Sub35_Trial89_0,0,2,2,-140.07402,True,1.482
35,0,25-Feb-2018,1,2,89,Sub35_Trial89_0,0,3,3,50.8851,True,1.482
35,0,25-Feb-2018,1,2,89,Sub35_Trial89_0,0,4,4,33.59102,True,1.482
35,0,25-Feb-2018,1,2,89,Sub35_Trial89_0,0,5,5,-22.122407,True,1.482
35,0,25-Feb-2018,1,2,89,Sub35_Trial89_0,0,6,6,142.386329,True,1.482
35,0,25-Feb-2018,1,2,89,Sub35_Trial89_1,1,0,0,-42.064878,False,1.482
35,0,25-Feb-2018,1,2,89,Sub35_Trial89_1,1,1,1,-95.959892,False,1.482
35,0,25-Feb-2018,1,2,89,Sub35_Trial89_1,1,2,2,163.022553,False,1.482
35,0,25-Feb-2018,1,2,89,Sub35_Trial89_1,1,3,3,-59.172142,False,1.482
35,0,25-Feb-2018,1,2,89,Sub35_Trial89_1,1,4,4,28.950015,False,1.482
35,0,25-Feb-2018,1,2,89,Sub35_Trial89_1,1,5,5,-87.164042,False,1.482
35,0,25-Feb-2018,1,2,89,Sub35_Trial89_1,1,6,6,-28.492457,False,1.482
35,0,25-Feb-2018,1,2,90,Sub35_Trial90_0,0,0,0,-161.432349,True,0.781
35,0,25-Feb-2018,1,2,90,Sub35_Trial90_0,0,1,1,-58.539697,True,0.781
35,0,25-Feb-2018,1,2,90,Sub35_Trial90_0,0,2,2,-34.153845,True,0.781
35,0,25-Feb-2018,1,2,90,Sub35_Trial90_0,0,3,3,58.071896,True,0.781
35,0,25-Feb-2018,1,2,90,Sub35_Trial90_0,0,4,4,3.72137,True,0.781
35,0,25-Feb-2018,1,2,90,Sub35_Trial90_0,0,5,5,125.492442,True,0.781
35,0,25-Feb-2018,1,2,90,Sub35_Trial90_0,0,6,6,-15.472974,True,0.781
35,0,25-Feb-2018,1,2,90,Sub35_Trial90_1,1,0,0,12.734786,False,0.781
35,0,25-Feb-2018,1,2,90,Sub35_Trial90_1,1,1,1,-91.654871,False,0.781
35,0,25-Feb-2018,1,2,90,Sub35_Trial90_1,1,2,2,162.383247,False,0.781
35,0,25-Feb-2018,1,2,90,Sub35_Trial90_1,1,3,3,19.557315,False,0.781
35,0,25-Feb-2018,1,2,90,Sub35_Trial90_1,1,4,4,64.672289,False,0.781
35,0,25-Feb-2018,1,2,90,Sub35_Trial90_1,1,5,5,-60.608753,False,0.781
35,0,25-Feb-2018,1,2,90,Sub35_Trial90_1,1,6,6,96.959948,False,0.781
35,0,25-Feb-2018,1,2,91,Sub35_Trial91_0,0,0,0,-46.907409,True,2.492
35,0,25-Feb-2018,1,2,91,Sub35_Trial91_0,0,1,1,-25.746643,True,2.492
35,0,25-Feb-2018,1,2,91,Sub35_Trial91_0,0,2,2,-35.244893,True,2.492
35,0,25-Feb-2018,1,2,91,Sub35_Trial91_0,0,3,3,-31.136483,True,2.492
35,0,25-Feb-2018,1,2,91,Sub35_Trial91_0,0,4,4,39.40882,True,2.492
35,0,25-Feb-2018,1,2,91,Sub35_Trial91_0,0,5,5,-79.004829,True,2.492
35,0,25-Feb-2018,1,2,91,Sub35_Trial91_0,0,6,6,139.71155,True,2.492
35,0,25-Feb-2018,1,2,91,Sub35_Trial91_1,1,0,0,86.673819,False,2.492
35,0,25-Feb-2018,1,2,91,Sub35_Trial91_1,1,1,1,9.050547,False,2.492
35,0,25-Feb-2018,1,2,91,Sub35_Trial91_1,1,2,2,55.916156,False,2.492
35,0,25-Feb-2018,1,2,91,Sub35_Trial91_1,1,3,3,-149.39746,False,2.492
35,0,25-Feb-2018,1,2,91,Sub35_Trial91_1,1,4,4,54.42968,False,2.492
35,0,25-Feb-2018,1,2,91,Sub35_Trial91_1,1,5,5,-101.469385,False,2.492
35,0,25-Feb-2018,1,2,91,Sub35_Trial91_1,1,6,6,28.167562,False,2.492
35,0,25-Feb-2018,1,2,92,Sub35_Trial92_0,0,0,0,10.608436,False,0.908
35,0,25-Feb-2018,1,2,92,Sub35_Trial92_0,0,1,1,-6.884859,False,0.908
35,0,25-Feb-2018,1,2,92,Sub35_Trial92_0,0,2,2,-38.024727,False,0.908
35,0,25-Feb-2018,1,2,92,Sub35_Trial92_0,0,3,3,1.243621,False,0.908
35,0,25-Feb-2018,1,2,92,Sub35_Trial92_0,0,4,4,-155.413508,False,0.908
35,0,25-Feb-2018,1,2,92,Sub35_Trial92_0,0,5,5,-158.335823,False,0.908
35,0,25-Feb-2018,1,2,92,Sub35_Trial92_0,0,6,6,58.791131,False,0.908
35,0,25-Feb-2018,1,2,92,Sub35_Trial92_1,1,0,0,-65.466026,True,0.908
35,0,25-Feb-2018,1,2,92,Sub35_Trial92_1,1,1,1,188.168267,True,0.908
35,0,25-Feb-2018,1,2,92,Sub35_Trial92_1,1,2,2,-71.708455,True,0.908
35,0,25-Feb-2018,1,2,92,Sub35_Trial92_1,1,3,3,175.277285,True,0.908
35,0,25-Feb-2018,1,2,92,Sub35_Trial92_1,1,4,4,152.939208,True,0.908
35,0,25-Feb-2018,1,2,92,Sub35_Trial92_1,1,5,5,-38.930695,True,0.908
35,0,25-Feb-2018,1,2,92,Sub35_Trial92_1,1,6,6,46.093785,True,0.908
35,0,25-Feb-2018,1,2,93,Sub35_Trial93_0,0,0,0,32.127706,False,0.866
35,0,25-Feb-2018,1,2,93,Sub35_Trial93_0,0,1,1,-25.838816,False,0.866
35,0,25-Feb-2018,1,2,93,Sub35_Trial93_0,0,2,2,73.820344,False,0.866
35,0,25-Feb-2018,1,2,93,Sub35_Trial93_0,0,3,3,44.337644,False,0.866
35,0,25-Feb-2018,1,2,93,Sub35_Trial93_0,0,4,4,22.216464,False,0.866
35,0,25-Feb-2018,1,2,93,Sub35_Trial93_0,0,5,5,-26.432089,False,0.866
35,0,25-Feb-2018,1,2,93,Sub35_Trial93_0,0,6,6,26.63592,False,0.866
35,0,25-Feb-2018,1,2,93,Sub35_Trial93_1,1,0,0,-23.293166,True,0.866
35,0,25-Feb-2018,1,2,93,Sub35_Trial93_1,1,1,1,93.234326,True,0.866
35,0,25-Feb-2018,1,2,93,Sub35_Trial93_1,1,2,2,6.468509,True,0.866
35,0,25-Feb-2018,1,2,93,Sub35_Trial93_1,1,3,3,69.427384,True,0.866
35,0,25-Feb-2018,1,2,93,Sub35_Trial93_1,1,4,4,58.441418,True,0.866
35,0,25-Feb-2018,1,2,93,Sub35_Trial93_1,1,5,5,4.671397,True,0.866
35,0,25-Feb-2018,1,2,93,Sub35_Trial93_1,1,6,6,-60.482525,True,0.866
35,0,25-Feb-2018,1,2,94,Sub35_Trial94_0,0,0,0,-11.421905,False,0.624
35,0,25-Feb-2018,1,2,94,Sub35_Trial94_0,0,1,1,171.024119,False,0.624
35,0,25-Feb-2018,1,2,94,Sub35_Trial94_0,0,2,2,-122.482192,False,0.624
35,0,25-Feb-2018,1,2,94,Sub35_Trial94_0,0,3,3,25.452939,False,0.624
35,0,25-Feb-2018,1,2,94,Sub35_Trial94_0,0,4,4,120.27016,False,0.624
35,0,25-Feb-2018,1,2,94,Sub35_Trial94_0,0,5,5,-189.988882,False,0.624
35,0,25-Feb-2018,1,2,94,Sub35_Trial94_0,0,6,6,-60.590378,False,0.624
35,0,25-Feb-2018,1,2,94,Sub35_Trial94_1,1,0,0,-39.38572,True,0.624
35,0,25-Feb-2018,1,2,94,Sub35_Trial94_1,1,1,1,-19.677505,True,0.624
35,0,25-Feb-2018,1,2,94,Sub35_Trial94_1,1,2,2,106.95074,True,0.624
35,0,25-Feb-2018,1,2,94,Sub35_Trial94_1,1,3,3,197.263577,True,0.624
35,0,25-Feb-2018,1,2,94,Sub35_Trial94_1,1,4,4,-45.717124,True,0.624
35,0,25-Feb-2018,1,2,94,Sub35_Trial94_1,1,5,5,125.079772,True,0.624
35,0,25-Feb-2018,1,2,94,Sub35_Trial94_1,1,6,6,91.554434,True,0.624
35,0,25-Feb-2018,1,2,95,Sub35_Trial95_0,0,0,0,-1.719281,False,0.51
35,0,25-Feb-2018,1,2,95,Sub35_Trial95_0,0,1,1,81.142099,False,0.51
35,0,25-Feb-2018,1,2,95,Sub35_Trial95_0,0,2,2,-35.075516,False,0.51
35,0,25-Feb-2018,1,2,95,Sub35_Trial95_0,0,3,3,-7.847099,False,0.51
35,0,25-Feb-2018,1,2,95,Sub35_Trial95_0,0,4,4,46.531186,False,0.51
35,0,25-Feb-2018,1,2,95,Sub35_Trial95_0,0,5,5,-43.622165,False,0.51
35,0,25-Feb-2018,1,2,95,Sub35_Trial95_0,0,6,6,-88.450508,False,0.51
35,0,25-Feb-2018,1,2,95,Sub35_Trial95_1,1,0,0,-21.445824,True,0.51
35,0,25-Feb-2018,1,2,95,Sub35_Trial95_1,1,1,1,-15.471447,True,0.51
35,0,25-Feb-2018,1,2,95,Sub35_Trial95_1,1,2,2,35.823034,True,0.51
35,0,25-Feb-2018,1,2,95,Sub35_Trial95_1,1,3,3,47.30639,True,0.51
35,0,25-Feb-2018,1,2,95,Sub35_Trial95_1,1,4,4,25.226185,True,0.51
35,0,25-Feb-2018,1,2,95,Sub35_Trial95_1,1,5,5,53.058493,True,0.51
35,0,25-Feb-2018,1,2,95,Sub35_Trial95_1,1,6,6,-123.728057,True,0.51
35,0,25-Feb-2018,1,2,96,Sub35_Trial96_0,0,0,0,83.371589,True,3.498
35,0,25-Feb-2018,1,2,96,Sub35_Trial96_0,0,1,1,-160.908125,True,3.498
35,0,25-Feb-2018,1,2,96,Sub35_Trial96_0,0,2,2,125.457617,True,3.498
35,0,25-Feb-2018,1,2,96,Sub35_Trial96_0,0,3,3,54.837154,True,3.498
35,0,25-Feb-2018,1,2,96,Sub35_Trial96_0,0,4,4,-20.959834,True,3.498
35,0,25-Feb-2018,1,2,96,Sub35_Trial96_0,0,5,5,-15.462041,True,3.498
35,0,25-Feb-2018,1,2,96,Sub35_Trial96_0,0,6,6,-74.982661,True,3.498
35,0,25-Feb-2018,1,2,96,Sub35_Trial96_1,1,0,0,-23.627266,False,3.498
35,0,25-Feb-2018,1,2,96,Sub35_Trial96_1,1,1,1,-120.998286,False,3.498
35,0,25-Feb-2018,1,2,96,Sub35_Trial96_1,1,2,2,47.376853,False,3.498
35,0,25-Feb-2018,1,2,96,Sub35_Trial96_1,1,3,3,119.992967,False,3.498
35,0,25-Feb-2018,1,2,96,Sub35_Trial96_1,1,4,4,39.54977,False,3.498
35,0,25-Feb-2018,1,2,96,Sub35_Trial96_1,1,5,5,-49.015858,False,3.498
35,0,25-Feb-2018,1,2,96,Sub35_Trial96_1,1,6,6,89.031884,False,3.498
35,0,25-Feb-2018,1,2,97,Sub35_Trial97_0,0,0,0,-74.648456,False,0.777
35,0,25-Feb-2018,1,2,97,Sub35_Trial97_0,0,1,1,-75.811863,False,0.777
35,0,25-Feb-2018,1,2,97,Sub35_Trial97_0,0,2,2,-122.909071,False,0.777
35,0,25-Feb-2018,1,2,97,Sub35_Trial97_0,0,3,3,26.229456,False,0.777
35,0,25-Feb-2018,1,2,97,Sub35_Trial97_0,0,4,4,5.670343,False,0.777
35,0,25-Feb-2018,1,2,97,Sub35_Trial97_0,0,5,5,-10.993429,False,0.777
35,0,25-Feb-2018,1,2,97,Sub35_Trial97_0,0,6,6,-117.342986,False,0.777
35,0,25-Feb-2018,1,2,97,Sub35_Trial97_1,1,0,0,-19.523625,True,0.777
35,0,25-Feb-2018,1,2,97,Sub35_Trial97_1,1,1,1,-70.84523,True,0.777
35,0,25-Feb-2018,1,2,97,Sub35_Trial97_1,1,2,2,-58.598237,True,0.777
35,0,25-Feb-2018,1,2,97,Sub35_Trial97_1,1,3,3,-78.717186,True,0.777
35,0,25-Feb-2018,1,2,97,Sub35_Trial97_1,1,4,4,75.363586,True,0.777
35,0,25-Feb-2018,1,2,97,Sub35_Trial97_1,1,5,5,29.556364,True,0.777
35,0,25-Feb-2018,1,2,97,Sub35_Trial97_1,1,6,6,-98.946991,True,0.777
35,0,25-Feb-2018,1,2,98,Sub35_Trial98_0,0,0,0,10.653858,True,2.659
35,0,25-Feb-2018,1,2,98,Sub35_Trial98_0,0,1,1,138.967814,True,2.659
35,0,25-Feb-2018,1,2,98,Sub35_Trial98_0,0,2,2,85.576059,True,2.659
35,0,25-Feb-2018,1,2,98,Sub35_Trial98_0,0,3,3,7.772209,True,2.659
35,0,25-Feb-2018,1,2,98,Sub35_Trial98_0,0,4,4,127.074144,True,2.659
35,0,25-Feb-2018,1,2,98,Sub35_Trial98_0,0,5,5,-71.560029,True,2.659
35,0,25-Feb-2018,1,2,98,Sub35_Trial98_0,0,6,6,-68.853459,True,2.659
35,0,25-Feb-2018,1,2,98,Sub35_Trial98_1,1,0,0,-28.380939,False,2.659
35,0,25-Feb-2018,1,2,98,Sub35_Trial98_1,1,1,1,-97.886729,False,2.659
35,0,25-Feb-2018,1,2,98,Sub35_Trial98_1,1,2,2,49.069696,False,2.659
35,0,25-Feb-2018,1,2,98,Sub35_Trial98_1,1,3,3,-0.926318,False,2.659
35,0,25-Feb-2018,1,2,98,Sub35_Trial98_1,1,4,4,163.088951,False,2.659
35,0,25-Feb-2018,1,2,98,Sub35_Trial98_1,1,5,5,-124.202138,False,2.659
35,0,25-Feb-2018,1,2,98,Sub35_Trial98_1,1,6,6,22.528629,False,2.659
35,0,25-Feb-2018,1,2,99,Sub35_Trial99_0,0,0,0,21.735998,True,2.308
35,0,25-Feb-2018,1,2,99,Sub35_Trial99_0,0,1,1,-169.738562,True,2.308
35,0,25-Feb-2018,1,2,99,Sub35_Trial99_0,0,2,2,-72.840457,True,2.308
35,0,25-Feb-2018,1,2,99,Sub35_Trial99_0,0,3,3,46.878877,True,2.308
35,0,25-Feb-2018,1,2,99,Sub35_Trial99_0,0,4,4,-98.110158,True,2.308
35,0,25-Feb-2018,1,2,99,Sub35_Trial99_0,0,5,5,32.269275,True,2.308
35,0,25-Feb-2018,1,2,99,Sub35_Trial99_0,0,6,6,-110.968039,True,2.308
35,0,25-Feb-2018,1,2,99,Sub35_Trial99_1,1,0,0,109.007315,False,2.308
35,0,25-Feb-2018,1,2,99,Sub35_Trial99_1,1,1,1,48.114345,False,2.308
35,0,25-Feb-2018,1,2,99,Sub35_Trial99_1,1,2,2,-100.750488,False,2.308
35,0,25-Feb-2018,1,2,99,Sub35_Trial99_1,1,3,3,26.095152,False,2.308
35,0,25-Feb-2018,1,2,99,Sub35_Trial99_1,1,4,4,14.435598,False,2.308
35,0,25-Feb-2018,1,2,99,Sub35_Trial99_1,1,5,5,-50.669461,False,2.308
35,0,25-Feb-2018,1,2,99,Sub35_Trial99_1,1,6,6,36.990246,False,2.308
35,0,25-Feb-2018,1,2,100,Sub35_Trial100_0,0,0,0,-71.981235,False,1.101
35,0,25-Feb-2018,1,2,100,Sub35_Trial100_0,0,1,1,153.300347,False,1.101
35,0,25-Feb-2018,1,2,100,Sub35_Trial100_0,0,2,2,-58.048081,False,1.101
35,0,25-Feb-2018,1,2,100,Sub35_Trial100_0,0,3,3,-150.588606,False,1.101
35,0,25-Feb-2018,1,2,100,Sub35_Trial100_0,0,4,4,62.032655,False,1.101
35,0,25-Feb-2018,1,2,100,Sub35_Trial100_0,0,5,5,-103.586056,False,1.101
35,0,25-Feb-2018,1,2,100,Sub35_Trial100_0,0,6,6,-13.723924,False,1.101
35,0,25-Feb-2018,1,2,100,Sub35_Trial100_1,1,0,0,104.809073,True,1.101
35,0,25-Feb-2018,1,2,100,Sub35_Trial100_1,1,1,1,-69.544657,True,1.101
35,0,25-Feb-2018,1,2,100,Sub35_Trial100_1,1,2,2,-137.70705,True,1.101
35,0,25-Feb-2018,1,2,100,Sub35_Trial100_1,1,3,3,42.82018,True,1.101
35,0,25-Feb-2018,1,2,100,Sub35_Trial100_1,1,4,4,-131.927199,True,1.101
35,0,25-Feb-2018,1,2,100,Sub35_Trial100_1,1,5,5,52.165154,True,1.101
35,0,25-Feb-2018,1,2,100,Sub35_Trial100_1,1,6,6,-49.081916,True,1.101
35,0,25-Feb-2018,1,3,101,Sub35_Trial101_0,0,0,0,-29.493663,False,0.746
35,0,25-Feb-2018,1,3,101,Sub35_Trial101_0,0,1,1,-68.640846,False,0.746
35,0,25-Feb-2018,1,3,101,Sub35_Trial101_0,0,2,2,89.068279,False,0.746
35,0,25-Feb-2018,1,3,101,Sub35_Trial101_0,0,3,3,6.078183,False,0.746
35,0,25-Feb-2018,1,3,101,Sub35_Trial101_0,0,4,4,145.554116,False,0.746
35,0,25-Feb-2018,1,3,101,Sub35_Trial101_0,0,5,5,15.157659,False,0.746
35,0,25-Feb-2018,1,3,101,Sub35_Trial101_0,0,6,6,-47.383749,False,0.746
35,0,25-Feb-2018,1,3,101,Sub35_Trial101_1,1,0,0,-148.587866,True,0.746
35,0,25-Feb-2018,1,3,101,Sub35_Trial101_1,1,1,1,16.778538,True,0.746
35,0,25-Feb-2018,1,3,101,Sub35_Trial101_1,1,2,2,35.871844,True,0.746
35,0,25-Feb-2018,1,3,101,Sub35_Trial101_1,1,3,3,64.634275,True,0.746
35,0,25-Feb-2018,1,3,101,Sub35_Trial101_1,1,4,4,123.480103,True,0.746
35,0,25-Feb-2018,1,3,101,Sub35_Trial101_1,1,5,5,90.512442,True,0.746
35,0,25-Feb-2018,1,3,101,Sub35_Trial101_1,1,6,6,-141.562958,True,0.746
35,0,25-Feb-2018,1,3,102,Sub35_Trial102_0,0,0,0,83.730608,True,1.274
35,0,25-Feb-2018,1,3,102,Sub35_Trial102_0,0,1,1,-25.821719,True,1.274
35,0,25-Feb-2018,1,3,102,Sub35_Trial102_0,0,2,2,45.259256,True,1.274
35,0,25-Feb-2018,1,3,102,Sub35_Trial102_0,0,3,3,109.713614,True,1.274
35,0,25-Feb-2018,1,3,102,Sub35_Trial102_0,0,4,4,31.1346,True,1.274
35,0,25-Feb-2018,1,3,102,Sub35_Trial102_0,0,5,5,46.689165,True,1.274
35,0,25-Feb-2018,1,3,102,Sub35_Trial102_0,0,6,6,125.639941,True,1.274
35,0,25-Feb-2018,1,3,102,Sub35_Trial102_1,1,0,0,110.044618,False,1.274
35,0,25-Feb-2018,1,3,102,Sub35_Trial102_1,1,1,1,-5.549697,False,1.274
35,0,25-Feb-2018,1,3,102,Sub35_Trial102_1,1,2,2,-53.425932,False,1.274
35,0,25-Feb-2018,1,3,102,Sub35_Trial102_1,1,3,3,-38.615411,False,1.274
35,0,25-Feb-2018,1,3,102,Sub35_Trial102_1,1,4,4,16.984913,False,1.274
35,0,25-Feb-2018,1,3,102,Sub35_Trial102_1,1,5,5,55.560271,False,1.274
35,0,25-Feb-2018,1,3,102,Sub35_Trial102_1,1,6,6,-159.977746,False,1.274
35,0,25-Feb-2018,1,3,103,Sub35_Trial103_0,0,0,0,-24.800947,True,0.698
35,0,25-Feb-2018,1,3,103,Sub35_Trial103_0,0,1,1,-82.571736,True,0.698
35,0,25-Feb-2018,1,3,103,Sub35_Trial103_0,0,2,2,-74.654335,True,0.698
35,0,25-Feb-2018,1,3,103,Sub35_Trial103_0,0,3,3,0.602984,True,0.698
35,0,25-Feb-2018,1,3,103,Sub35_Trial103_0,0,4,4,163.624762,True,0.698
35,0,25-Feb-2018,1,3,103,Sub35_Trial103_0,0,5,5,140.844027,True,0.698
35,0,25-Feb-2018,1,3,103,Sub35_Trial103_0,0,6,6,144.208423,True,0.698
35,0,25-Feb-2018,1,3,103,Sub35_Trial103_1,1,0,0,-134.204212,False,0.698
35,0,25-Feb-2018,1,3,103,Sub35_Trial103_1,1,1,1,143.898161,False,0.698
35,0,25-Feb-2018,1,3,103,Sub35_Trial103_1,1,2,2,73.008806,False,0.698
35,0,25-Feb-2018,1,3,103,Sub35_Trial103_1,1,3,3,-15.290357,False,0.698
35,0,25-Feb-2018,1,3,103,Sub35_Trial103_1,1,4,4,24.213583,False,0.698
35,0,25-Feb-2018,1,3,103,Sub35_Trial103_1,1,5,5,-5.689768,False,0.698
35,0,25-Feb-2018,1,3,103,Sub35_Trial103_1,1,6,6,134.17438,False,0.698
35,0,25-Feb-2018,1,3,104,Sub35_Trial104_0,0,0,0,-41.441277,True,2.868
35,0,25-Feb-2018,1,3,104,Sub35_Trial104_0,0,1,1,-25.248946,True,2.868
35,0,25-Feb-2018,1,3,104,Sub35_Trial104_0,0,2,2,-120.875763,True,2.868
35,0,25-Feb-2018,1,3,104,Sub35_Trial104_0,0,3,3,75.442305,True,2.868
35,0,25-Feb-2018,1,3,104,Sub35_Trial104_0,0,4,4,32.835554,True,2.868
35,0,25-Feb-2018,1,3,104,Sub35_Trial104_0,0,5,5,52.549932,True,2.868
35,0,25-Feb-2018,1,3,104,Sub35_Trial104_0,0,6,6,3.231284,True,2.868
35,0,25-Feb-2018,1,3,104,Sub35_Trial104_1,1,0,0,7.121225,False,2.868
35,0,25-Feb-2018,1,3,104,Sub35_Trial104_1,1,1,1,-52.475287,False,2.868
35,0,25-Feb-2018,1,3,104,Sub35_Trial104_1,1,2,2,34.589831,False,2.868
35,0,25-Feb-2018,1,3,104,Sub35_Trial104_1,1,3,3,-113.041072,False,2.868
35,0,25-Feb-2018,1,3,104,Sub35_Trial104_1,1,4,4,48.926323,False,2.868
35,0,25-Feb-2018,1,3,104,Sub35_Trial104_1,1,5,5,60.677346,False,2.868
35,0,25-Feb-2018,1,3,104,Sub35_Trial104_1,1,6,6,-26.249181,False,2.868
35,0,25-Feb-2018,1,3,105,Sub35_Trial105_0,0,0,0,-88.632135,True,0.864
35,0,25-Feb-2018,1,3,105,Sub35_Trial105_0,0,1,1,43.365105,True,0.864
35,0,25-Feb-2018,1,3,105,Sub35_Trial105_0,0,2,2,66.201802,True,0.864
35,0,25-Feb-2018,1,3,105,Sub35_Trial105_0,0,3,3,43.854856,True,0.864
35,0,25-Feb-2018,1,3,105,Sub35_Trial105_0,0,4,4,-6.493712,True,0.864
35,0,25-Feb-2018,1,3,105,Sub35_Trial105_0,0,5,5,66.470958,True,0.864
35,0,25-Feb-2018,1,3,105,Sub35_Trial105_0,0,6,6,-46.935808,True,0.864
35,0,25-Feb-2018,1,3,105,Sub35_Trial105_1,1,0,0,-153.855037,False,0.864
35,0,25-Feb-2018,1,3,105,Sub35_Trial105_1,1,1,1,-99.908351,False,0.864
35,0,25-Feb-2018,1,3,105,Sub35_Trial105_1,1,2,2,-16.114263,False,0.864
35,0,25-Feb-2018,1,3,105,Sub35_Trial105_1,1,3,3,-166.628161,False,0.864
35,0,25-Feb-2018,1,3,105,Sub35_Trial105_1,1,4,4,-106.817754,False,0.864
35,0,25-Feb-2018,1,3,105,Sub35_Trial105_1,1,5,5,50.288703,False,0.864
35,0,25-Feb-2018,1,3,105,Sub35_Trial105_1,1,6,6,-19.376727,False,0.864
35,0,25-Feb-2018,1,3,106,Sub35_Trial106_0,0,0,0,57.503119,True,0.805
