subj,patient,date,session,part,trial,stim,stim_order,segment,segment_time,pitch,response,rt
19,0,19-May-2018,1,1,1,Sub19_Trial1_0,0,0,0,-70.0744,False,11.739
19,0,19-May-2018,1,1,1,Sub19_Trial1_0,0,1,1,4.614287,False,11.739
19,0,19-May-2018,1,1,1,Sub19_Trial1_0,0,2,2,3.266386,False,11.739
19,0,19-May-2018,1,1,1,Sub19_Trial1_0,0,3,3,-57.795647,False,11.739
19,0,19-May-2018,1,1,1,Sub19_Trial1_0,0,4,4,4.280881,False,11.739
19,0,19-May-2018,1,1,1,Sub19_Trial1_0,0,5,5,-29.820431,False,11.739
19,0,19-May-2018,1,1,1,Sub19_Trial1_0,0,6,6,43.599106,False,11.739
19,0,19-May-2018,1,1,1,Sub19_Trial1_1,1,0,0,41.556061,True,11.739
19,0,19-May-2018,1,1,1,Sub19_Trial1_1,1,1,1,-68.675577,True,11.739
19,0,19-May-2018,1,1,1,Sub19_Trial1_1,1,2,2,12.156992,True,11.739
19,0,19-May-2018,1,1,1,Sub19_Trial1_1,1,3,3,27.800609,True,11.739
19,0,19-May-2018,1,1,1,Sub19_Trial1_1,1,4,4,125.44429,True,11.739
19,0,19-May-2018,1,1,1,Sub19_Trial1_1,1,5,5,17.549051,True,11.739
19,0,19-May-2018,1,1,1,Sub19_Trial1_1,1,6,6,-112.774622,True,11.739
19,0,19-May-2018,1,1,2,Sub19_Trial2_0,0,0,0,16.852315,True,3.577
19,0,19-May-2018,1,1,2,Sub19_Trial2_0,0,1,1,0.019453,True,3.577
19,0,19-May-2018,1,1,2,Sub19_Trial2_0,0,2,2,-29.419152,True,3.577
19,0,19-May-2018,1,1,2,Sub19_Trial2_0,0,3,3,94.537798,True,3.577
19,0,19-May-2018,1,1,2,Sub19_Trial2_0,0,4,4,35.23665,True,3.577
19,0,19-May-2018,1,1,2,Sub19_Trial2_0,0,5,5,131.03011,True,3.577
19,0,19-May-2018,1,1,2,Sub19_Trial2_0,0,6,6,190.894373,True,3.577
19,0,19-May-2018,1,1,2,Sub19_Trial2_1,1,0,0,-35.31055,False,3.577
19,0,19-May-2018,1,1,2,Sub19_Trial2_1,1,1,1,-68.112808,False,3.577
19,0,19-May-2018,1,1,2,Sub19_Trial2_1,1,2,2,136.888502,False,3.577
19,0,19-May-2018,1,1,2,Sub19_Trial2_1,1,3,3,-37.738966,False,3.577
19,0,19-May-2018,1,1,2,Sub19_Trial2_1,1,4,4,125.663542,False,3.577
19,0,19-May-2018,1,1,2,Sub19_Trial2_1,1,5,5,15.393242,False,3.577
19,0,19-May-2018,1,1,2,Sub19_Trial2_1,1,6,6,-50.56461,False,3.577
19,0,19-May-2018,1,1,3,Sub19_Trial3_0,0,0,0,70.294195,True,1.046
19,0,19-May-2018,1,1,3,Sub19_Trial3_0,0,1,1,-72.747194,True,1.046
19,0,19-May-2018,1,1,3,Sub19_Trial3_0,0,2,2,95.786745,True,1.046
19,0,19-May-2018,1,1,3,Sub19_Trial3_0,0,3,3,11.318377,True,1.046
19,0,19-May-2018,1,1,3,Sub19_Trial3_0,0,4,4,68.863964,True,1.046
19,0,19-May-2018,1,1,3,Sub19_Trial3_0,0,5,5,53.816473,True,1.046
19,0,19-May-2018,1,1,3,Sub19_Trial3_0,0,6,6,106.095635,True,1.046
19,0,19-May-2018,1,1,3,Sub19_Trial3_1,1,0,0,-65.990597,False,1.046
19,0,19-May-2018,1,1,3,Sub19_Trial3_1,1,1,1,-21.240902,False,1.046
19,0,19-May-2018,1,1,3,Sub19_Trial3_1,1,2,2,-20.426507,False,1.046
19,0,19-May-2018,1,1,3,Sub19_Trial3_1,1,3,3,6.903112,False,1.046
19,0,19-May-2018,1,1,3,Sub19_Trial3_1,1,4,4,62.253672,False,1.046
19,0,19-May-2018,1,1,3,Sub19_Trial3_1,1,5,5,-34.528716,False,1.046
19,0,19-May-2018,1,1,3,Sub19_Trial3_1,1,6,6,-39.334637,False,1.046
19,0,19-May-2018,1,1,4,Sub19_Trial4_0,0,0,0,-46.649469,True,1.119
19,0,19-May-2018,1,1,4,Sub19_Trial4_0,0,1,1,40.747009,True,1.119
19,0,19-May-2018,1,1,4,Sub19_Trial4_0,0,2,2,-98.913414,True,1.119
19,0,19-May-2018,1,1,4,Sub19_Trial4_0,0,3,3,-112.271381,True,1.119
19,0,19-May-2018,1,1,4,Sub19_Trial4_0,0,4,4,-112.612743,True,1.119
19,0,19-May-2018,1,1,4,Sub19_Trial4_0,0,5,5,169.901216,True,1.119
19,0,19-May-2018,1,1,4,Sub19_Trial4_0,0,6,6,73.45017,True,1.119
19,0,19-May-2018,1,1,4,Sub19_Trial4_1,1,0,0,-23.107242,False,1.119
19,0,19-May-2018,1,1,4,Sub19_Trial4_1,1,1,1,91.253439,False,1.119
19,0,19-May-2018,1,1,4,Sub19_Trial4_1,1,2,2,-115.38373,False,1.119
19,0,19-May-2018,1,1,4,Sub19_Trial4_1,1,3,3,18.436715,False,1.119
19,0,19-May-2018,1,1,4,Sub19_Trial4_1,1,4,4,-7.559378,False,1.119
19,0,19-May-2018,1,1,4,Sub19_Trial4_1,1,5,5,-24.664034,False,1.119
19,0,19-May-2018,1,1,4,Sub19_Trial4_1,1,6,6,-127.934246,False,1.119
19,0,19-May-2018,1,1,5,Sub19_Trial5_0,0,0,0,120.220813,False,0.902
19,0,19-May-2018,1,1,5,Sub19_Trial5_0,0,1,1,135.93936,False,0.902
19,0,19-May-2018,1,1,5,Sub19_Trial5_0,0,2,2,80.644406,False,0.902
19,0,19-May-2018,1,1,5,Sub19_Trial5_0,0,3,3,-42.178547,False,0.902
19,0,19-May-2018,1,1,5,Sub19_Trial5_0,0,4,4,59.827082,False,0.902
19,0,19-May-2018,1,1,5,Sub19_Trial5_0,0,5,5,-173.583363,False,0.902
19,0,19-May-2018,1,1,5,Sub19_Trial5_0,0,6,6,-31.6557,False,0.902
19,0,19-May-2018,1,1,5,Sub19_Trial5_1,1,0,0,19.43355,True,0.902
19,0,19-May-2018,1,1,5,Sub19_Trial5_1,1,1,1,-76.908081,True,0.902
19,0,19-May-2018,1,1,5,Sub19_Trial5_1,1,2,2,0.752414,True,0.902
19,0,19-May-2018,1,1,5,Sub19_Trial5_1,1,3,3,-97.579483,True,0.902
19,0,19-May-2018,1,1,5,Sub19_Trial5_1,1,4,4,-3.48799,True,0.902
19,0,19-May-2018,1,1,5,Sub19_Trial5_1,1,5,5,48.854925,True,0.902
19,0,19-May-2018,1,1,5,Sub19_Trial5_1,1,6,6,32.36746,True,0.902
19,0,19-May-2018,1,1,6,Sub19_Trial6_0,0,0,0,-119.653416,False,2.204
19,0,19-May-2018,1,1,6,Sub19_Trial6_0,0,1,1,73.018937,False,2.204
19,0,19-May-2018,1,1,6,Sub19_Trial6_0,0,2,2,40.351979,False,2.204
19,0,19-May-2018,1,1,6,Sub19_Trial6_0,0,3,3,-46.293274,False,2.204
19,0,19-May-2018,1,1,6,Sub19_Trial6_0,0,4,4,-19.592935,False,2.204
19,0,19-May-2018,1,1,6,Sub19_Trial6_0,0,5,5,40.445225,False,2.204
19,0,19-May-2018,1,1,6,Sub19_Trial6_0,0,6,6,27.989481,False,2.204
19,0,19-May-2018,1,1,6,Sub19_Trial6_1,1,0,0,39.88212,True,2.204
19,0,19-May-2018,1,1,6,Sub19_Trial6_1,1,1,1,142.222361,True,2.204
19,0,19-May-2018,1,1,6,Sub19_Trial6_1,1,2,2,-88.62226,True,2.204
19,0,19-May-2018,1,1,6,Sub19_Trial6_1,1,3,3,-38.116655,True,2.204
19,0,19-May-2018,1,1,6,Sub19_Trial6_1,1,4,4,-128.402151,True,2.204
19,0,19-May-2018,1,1,6,Sub19_Trial6_1,1,5,5,16.755149,True,2.204
19,0,19-May-2018,1,1,6,Sub19_Trial6_1,1,6,6,-95.756894,True,2.204
19,0,19-May-2018,1,1,7,Sub19_Trial7_0,0,0,0,-53.065306,False,2.127
19,0,19-May-2018,1,1,7,Sub19_Trial7_0,0,1,1,-57.156135,False,2.127
19,0,19-May-2018,1,1,7,Sub19_Trial7_0,0,2,2,-82.252139,False,2.127
19,0,19-May-2018,1,1,7,Sub19_Trial7_0,0,3,3,163.881843,False,2.127
19,0,19-May-2018,1,1,7,Sub19_Trial7_0,0,4,4,105.919733,False,2.127
19,0,19-May-2018,1,1,7,Sub19_Trial7_0,0,5,5,-116.676989,False,2.127
19,0,19-May-2018,1,1,7,Sub19_Trial7_0,0,6,6,23.480593,False,2.127
19,0,19-May-2018,1,1,7,Sub19_Trial7_1,1,0,0,-10.539576,True,2.127
19,0,19-May-2018,1,1,7,Sub19_Trial7_1,1,1,1,-159.611335,True,2.127
19,0,19-May-2018,1,1,7,Sub19_Trial7_1,1,2,2,28.83751,True,2.127
19,0,19-May-2018,1,1,7,Sub19_Trial7_1,1,3,3,117.010209,True,2.127
19,0,19-May-2018,1,1,7,Sub19_Trial7_1,1,4,4,68.144258,True,2.127
19,0,19-May-2018,1,1,7,Sub19_Trial7_1,1,5,5,-56.653845,True,2.127
19,0,19-May-2018,1,1,7,Sub19_Trial7_1,1,6,6,75.732319,True,2.127
19,0,19-May-2018,1,1,8,Sub19_Trial8_0,0,0,0,-17.574998,False,0.974
19,0,19-May-2018,1,1,8,Sub19_Trial8_0,0,1,1,146.304618,False,0.974
19,0,19-May-2018,1,1,8,Sub19_Trial8_0,0,2,2,-10.023937,False,0.974
19,0,19-May-2018,1,1,8,Sub19_Trial8_0,0,3,3,-102.393876,False,0.974
19,0,19-May-2018,1,1,8,Sub19_Trial8_0,0,4,4,-67.047561,False,0.974
19,0,19-May-2018,1,1,8,Sub19_Trial8_0,0,5,5,-46.36197,False,0.974
19,0,19-May-2018,1,1,8,Sub19_Trial8_0,0,6,6,104.274717,False,0.974
19,0,19-May-2018,1,1,8,Sub19_Trial8_1,1,0,0,74.434316,True,0.974
19,0,19-May-2018,1,1,8,Sub19_Trial8_1,1,1,1,-181.016943,True,0.974
19,0,19-May-2018,1,1,8,Sub19_Trial8_1,1,2,2,-12.124954,True,0.974
19,0,19-May-2018,1,1,8,Sub19_Trial8_1,1,3,3,52.618327,True,0.974
19,0,19-May-2018,1,1,8,Sub19_Trial8_1,1,4,4,103.384201,True,0.974
19,0,19-May-2018,1,1,8,Sub19_Trial8_1,1,5,5,121.862394,True,0.974
19,0,19-May-2018,1,1,8,Sub19_Trial8_1,1,6,6,167.084527,True,0.974
19,0,19-May-2018,1,1,9,Sub19_Trial9_0,0,0,0,-16.509407,False,0.817
19,0,19-May-2018,1,1,9,Sub19_Trial9_0,0,1,1,67.457023,False,0.817
19,0,19-May-2018,1,1,9,Sub19_Trial9_0,0,2,2,113.524695,False,0.817
19,0,19-May-2018,1,1,9,Sub19_Trial9_0,0,3,3,-150.959602,False,0.817
19,0,19-May-2018,1,1,9,Sub19_Trial9_0,0,4,4,48.817039,False,0.817
19,0,19-May-2018,1,1,9,Sub19_Trial9_0,0,5,5,-167.144939,False,0.817
19,0,19-May-2018,1,1,9,Sub19_Trial9_0,0,6,6,46.196654,False,0.817
19,0,19-May-2018,1,1,9,Sub19_Trial9_1,1,0,0,-27.11469,True,0.817
19,0,19-May-2018,1,1,9,Sub19_Trial9_1,1,1,1,184.579693,True,0.817
19,0,19-May-2018,1,1,9,Sub19_Trial9_1,1,2,2,-29.545093,True,0.817
19,0,19-May-2018,1,1,9,Sub19_Trial9_1,1,3,3,22.5285,True,0.817
19,0,19-May-2018,1,1,9,Sub19_Trial9_1,1,4,4,82.613599,True,0.817
19,0,19-May-2018,1,1,9,Sub19_Trial9_1,1,5,5,54.635989,True,0.817
19,0,19-May-2018,1,1,9,Sub19_Trial9_1,1,6,6,2.574952,True,0.817
19,0,19-May-2018,1,1,10,Sub19_Trial10_0,0,0,0,-178.9622,True,2.198
19,0,19-May-2018,1,1,10,Sub19_Trial10_0,0,1,1,-8.298237,True,2.198
19,0,19-May-2018,1,1,10,Sub19_Trial10_0,0,2,2,54.242864,True,2.198
19,0,19-May-2018,1,1,10,Sub19_Trial10_0,0,3,3,-79.674564,True,2.198
19,0,19-May-2018,1,1,10,Sub19_Trial10_0,0,4,4,-45.961635,True,2.198
19,0,19-May-2018,1,1,10,Sub19_Trial10_0,0,5,5,-62.238695,True,2.198
19,0,19-May-2018,1,1,10,Sub19_Trial10_0,0,6,6,65.15282,True,2.198
19,0,19-May-2018,1,1,10,Sub19_Trial10_1,1,0,0,-4.825484,False,2.198
19,0,19-May-2018,1,1,10,Sub19_Trial10_1,1,1,1,22.893631,False,2.198
19,0,19-May-2018,1,1,10,Sub19_Trial10_1,1,2,2,115.444944,False,2.198
19,0,19-May-2018,1,1,10,Sub19_Trial10_1,1,3,3,45.781289,False,2.198
19,0,19-May-2018,1,1,10,Sub19_Trial10_1,1,4,4,-73.295617,False,2.198
19,0,19-May-2018,1,1,10,Sub19_Trial10_1,1,5,5,-46.893678,False,2.198
19,0,19-May-2018,1,1,10,Sub19_Trial10_1,1,6,6,148.338736,False,2.198
19,0,19-May-2018,1,1,11,Sub19_Trial11_0,0,0,0,18.12253,False,0.805
19,0,19-May-2018,1,1,11,Sub19_Trial11_0,0,1,1,159.702686,False,0.805
19,0,19-May-2018,1,1,11,Sub19_Trial11_0,0,2,2,-3.798388,False,0.805
19,0,19-May-2018,1,1,11,Sub19_Trial11_0,0,3,3,-71.429532,False,0.805
19,0,19-May-2018,1,1,11,Sub19_Trial11_0,0,4,4,-5.592261,False,0.805
19,0,19-May-2018,1,1,11,Sub19_Trial11_0,0,5,5,-120.778223,False,0.805
19,0,19-May-2018,1,1,11,Sub19_Trial11_0,0,6,6,-74.000565,False,0.805
19,0,19-May-2018,1,1,11,Sub19_Trial11_1,1,0,0,-104.927071,True,0.805
19,0,19-May-2018,1,1,11,Sub19_Trial11_1,1,1,1,-13.682655,True,0.805
19,0,19-May-2018,1,1,11,Sub19_Trial11_1,1,2,2,38.378793,True,0.805
19,0,19-May-2018,1,1,11,Sub19_Trial11_1,1,3,3,162.641005,True,0.805
19,0,19-May-2018,1,1,11,Sub19_Trial11_1,1,4,4,136.454738,True,0.805
19,0,19-May-2018,1,1,11,Sub19_Trial11_1,1,5,5,79.75793,True,0.805
19,0,19-May-2018,1,1,11,Sub19_Trial11_1,1,6,6,117.530792,True,0.805
19,0,19-May-2018,1,1,12,Sub19_Trial12_0,0,0,0,-18.638692,False,1.289
19,0,19-May-2018,1,1,12,Sub19_Trial12_0,0,1,1,23.010138,False,1.289
19,0,19-May-2018,1,1,12,Sub19_Trial12_0,0,2,2,-26.278248,False,1.289
19,0,19-May-2018,1,1,12,Sub19_Trial12_0,0,3,3,11.593343,False,1.289
19,0,19-May-2018,1,1,12,Sub19_Trial12_0,0,4,4,0.851235,False,1.289
19,0,19-May-2018,1,1,12,Sub19_Trial12_0,0,5,5,0.490328,False,1.289
19,0,19-May-2018,1,1,12,Sub19_Trial12_0,0,6,6,-134.112574,False,1.289
19,0,19-May-2018,1,1,12,Sub19_Trial12_1,1,0,0,57.900461,True,1.289
19,0,19-May-2018,1,1,12,Sub19_Trial12_1,1,1,1,-43.255451,True,1.289
19,0,19-May-2018,1,1,12,Sub19_Trial12_1,1,2,2,64.091649,True,1.289
19,0,19-May-2018,1,1,12,Sub19_Trial12_1,1,3,3,-102.742202,True,1.289
19,0,19-May-2018,1,1,12,Sub19_Trial12_1,1,4,4,-138.259372,True,1.289
19,0,19-May-2018,1,1,12,Sub19_Trial12_1,1,5,5,66.33665,True,1.289
19,0,19-May-2018,1,1,12,Sub19_Trial12_1,1,6,6,39.512224,True,1.289
19,0,19-May-2018,1,1,13,Sub19_Trial13_0,0,0,0,23.134234,False,2.176
19,0,19-May-2018,1,1,13,Sub19_Trial13_0,0,1,1,-104.153211,False,2.176
19,0,19-May-2018,1,1,13,Sub19_Trial13_0,0,2,2,102.858543,False,2.176
19,0,19-May-2018,1,1,13,Sub19_Trial13_0,0,3,3,117.329708,False,2.176
19,0,19-May-2018,1,1,13,Sub19_Trial13_0,0,4,4,116.309888,False,2.176
19,0,19-May-2018,1,1,13,Sub19_Trial13_0,0,5,5,-150.154422,False,2.176
19,0,19-May-2018,1,1,13,Sub19_Trial13_0,0,6,6,13.884002,False,2.176
19,0,19-May-2018,1,1,13,Sub19_Trial13_1,1,0,0,59.867537,True,2.176
19,0,19-May-2018,1,1,13,Sub19_Trial13_1,1,1,1,-139.688674,True,2.176
19,0,19-May-2018,1,1,13,Sub19_Trial13_1,1,2,2,-29.906002,True,2.176
19,0,19-May-2018,1,1,13,Sub19_Trial13_1,1,3,3,-56.075409,True,2.176
19,0,19-May-2018,1,1,13,Sub19_Trial13_1,1,4,4,109.062207,True,2.176
19,0,19-May-2018,1,1,13,Sub19_Trial13_1,1,5,5,-44.514602,True,2.176
19,0,19-May-2018,1,1,13,Sub19_Trial13_1,1,6,6,14.109576,True,2.176
19,0,19-May-2018,1,1,14,Sub19_Trial14_0,0,0,0,26.992213,True,0.578
19,0,19-May-2018,1,1,14,Sub19_Trial14_0,0,1,1,-34.3748,True,0.578
19,0,19-May-2018,1,1,14,Sub19_Trial14_0,0,2,2,-0.923932,True,0.578
19,0,19-May-2018,1,1,14,Sub19_Trial14_0,0,3,3,-72.891246,True,0.578
19,0,19-May-2018,1,1,14,Sub19_Trial14_0,0,4,4,25.93002,True,0.578
19,0,19-May-2018,1,1,14,Sub19_Trial14_0,0,5,5,146.517996,True,0.578
19,0,19-May-2018,1,1,14,Sub19_Trial14_0,0,6,6,106.377214,True,0.578
19,0,19-May-2018,1,1,14,Sub19_Trial14_1,1,0,0,-36.955423,False,0.578
19,0,19-May-2018,1,1,14,Sub19_Trial14_1,1,1,1,82.199119,False,0.578
19,0,19-May-2018,1,1,14,Sub19_Trial14_1,1,2,2,-95.767237,False,0.578
19,0,19-May-2018,1,1,14,Sub19_Trial14_1,1,3,3,58.414071,False,0.578
19,0,19-May-2018,1,1,14,Sub19_Trial14_1,1,4,4,41.426351,False,0.578
19,0,19-May-2018,1,1,14,Sub19_Trial14_1,1,5,5,-107.942005,False,0.578
19,0,19-May-2018,1,1,14,Sub19_Trial14_1,1,6,6,65.401521,False,0.578
19,0,19-May-2018,1,1,15,Sub19_Trial15_0,0,0,0,150.529387,False,1.645
19,0,19-May-2018,1,1,15,Sub19_Trial15_0,0,1,1,-97.376926,False,1.645
19,0,19-May-2018,1,1,15,Sub19_Trial15_0,0,2,2,-54.349182,False,1.645
19,0,19-May-2018,1,1,15,Sub19_Trial15_0,0,3,3,-130.40232,False,1.645
19,0,19-May-2018,1,1,15,Sub19_Trial15_0,0,4,4,-63.979233,False,1.645
19,0,19-May-2018,1,1,15,Sub19_Trial15_0,0,5,5,-30.39339,False,1.645
19,0,19-May-2018,1,1,15,Sub19_Trial15_0,0,6,6,-30.239176,False,1.645
19,0,19-May-2018,1,1,15,Sub19_Trial15_1,1,0,0,12.14696,True,1.645
19,0,19-May-2018,1,1,15,Sub19_Trial15_1,1,1,1,-73.858775,True,1.645
19,0,19-May-2018,1,1,15,Sub19_Trial15_1,1,2,2,53.076318,True,1.645
19,0,19-May-2018,1,1,15,Sub19_Trial15_1,1,3,3,-87.368001,True,1.645
19,0,19-May-2018,1,1,15,Sub19_Trial15_1,1,4,4,-78.089668,True,1.645
19,0,19-May-2018,1,1,15,Sub19_Trial15_1,1,5,5,-95.228518,True,1.645
19,0,19-May-2018,1,1,15,Sub19_Trial15_1,1,6,6,110.871552,True,1.645
19,0,19-May-2018,1,1,16,Sub19_Trial16_0,0,0,0,11.381028,False,1.128
19,0,19-May-2018,1,1,16,Sub19_Trial16_0,0,1,1,-124.202007,False,1.128
19,0,19-May-2018,1,1,16,Sub19_Trial16_0,0,2,2,25.272267,False,1.128
19,0,19-May-2018,1,1,16,Sub19_Trial16_0,0,3,3,60.568881,False,1.128
19,0,19-May-2018,1,1,16,Sub19_Trial16_0,0,4,4,116.241948,False,1.128
19,0,19-May-2018,1,1,16,Sub19_Trial16_0,0,5,5,-123.197468,False,1.128
19,0,19-May-2018,1,1,16,Sub19_Trial16_0,0,6,6,-60.337503,False,1.128
19,0,19-May-2018,1,1,16,Sub19_Trial16_1,1,0,0,-163.95337,True,1.128
19,0,19-May-2018,1,1,16,Sub19_Trial16_1,1,1,1,35.969133,True,1.128
19,0,19-May-2018,1,1,16,Sub19_Trial16_1,1,2,2,-16.466447,True,1.128
19,0,19-May-2018,1,1,16,Sub19_Trial16_1,1,3,3,-106.975924,True,1.128
19,0,19-May-2018,1,1,16,Sub19_Trial16_1,1,4,4,114.296505,True,1.128
19,0,19-May-2018,1,1,16,Sub19_Trial16_1,1,5,5,-142.907027,True,1.128
19,0,19-May-2018,1,1,16,Sub19_Trial16_1,1,6,6,75.582104,True,1.128
19,0,19-May-2018,1,1,17,Sub19_Trial17_0,0,0,0,-42.333798,True,1.149
19,0,19-May-2018,1,1,17,Sub19_Trial17_0,0,1,1,59.074252,True,1.149
19,0,19-May-2018,1,1,17,Sub19_Trial17_0,0,2,2,48.901113,True,1.149
19,0,19-May-2018,1,1,17,Sub19_Trial17_0,0,3,3,-69.067769,True,1.149
19,0,19-May-2018,1,1,17,Sub19_Trial17_0,0,4,4,-69.571984,True,1.149
19,0,19-May-2018,1,1,17,Sub19_Trial17_0,0,5,5,-57.504301,True,1.149
19,0,19-May-2018,1,1,17,Sub19_Trial17_0,0,6,6,10.716604,True,1.149
19,0,19-May-2018,1,1,17,Sub19_Trial17_1,1,0,0,49.331084,False,1.149
19,0,19-May-2018,1,1,17,Sub19_Trial17_1,1,1,1,-36.916103,False,1.149
19,0,19-May-2018,1,1,17,Sub19_Trial17_1,1,2,2,-72.397377,False,1.149
19,0,19-May-2018,1,1,17,Sub19_Trial17_1,1,3,3,-77.405654,False,1.149
19,0,19-May-2018,1,1,17,Sub19_Trial17_1,1,4,4,-68.217674,False,1.149
19,0,19-May-2018,1,1,17,Sub19_Trial17_1,1,5,5,-77.9478,False,1.149
19,0,19-May-2018,1,1,17,Sub19_Trial17_1,1,6,6,41.334243,False,1.149
19,0,19-May-2018,1,1,18,Sub19_Trial18_0,0,0,0,190.167548,False,2.229
19,0,19-May-2018,1,1,18,Sub19_Trial18_0,0,1,1,-42.241911,False,2.229
19,0,19-May-2018,1,1,18,Sub19_Trial18_0,0,2,2,66.054165,False,2.229
19,0,19-May-2018,1,1,18,Sub19_Trial18_0,0,3,3,43.327745,False,2.229
19,0,19-May-2018,1,1,18,Sub19_Trial18_0,0,4,4,-93.013965,False,2.229
19,0,19-May-2018,1,1,18,Sub19_Trial18_0,0,5,5,60.216935,False,2.229
19,0,19-May-2018,1,1,18,Sub19_Trial18_0,0,6,6,-23.70945,False,2.229
19,0,19-May-2018,1,1,18,Sub19_Trial18_1,1,0,0,46.264931,True,2.229
19,0,19-May-2018,1,1,18,Sub19_Trial18_1,1,1,1,17.709475,True,2.229
19,0,19-May-2018,1,1,18,Sub19_Trial18_1,1,2,2,-183.65782,True,2.229
19,0,19-May-2018,1,1,18,Sub19_Trial18_1,1,3,3,-106.702184,True,2.229
19,0,19-May-2018,1,1,18,Sub19_Trial18_1,1,4,4,103.23576,True,2.229
19,0,19-May-2018,1,1,18,Sub19_Trial18_1,1,5,5,-12.660467,True,2.229
19,0,19-May-2018,1,1,18,Sub19_Trial18_1,1,6,6,-42.888754,True,2.229
19,0,19-May-2018,1,1,19,Sub19_Trial19_0,0,0,0,60.834669,False,1.443
19,0,19-May-2018,1,1,19,Sub19_Trial19_0,0,1,1,-31.033121,False,1.443
19,0,19-May-2018,1,1,19,Sub19_Trial19_0,0,2,2,111.510952,False,1.443
19,0,19-May-2018,1,1,19,Sub19_Trial19_0,0,3,3,-70.652015,False,1.443
19,0,19-May-2018,1,1,19,Sub19_Trial19_0,0,4,4,-77.349484,False,1.443
19,0,19-May-2018,1,1,19,Sub19_Trial19_0,0,5,5,89.976506,False,1.443
19,0,19-May-2018,1,1,19,Sub19_Trial19_0,0,6,6,-65.394243,False,1.443
19,0,19-May-2018,1,1,19,Sub19_Trial19_1,1,0,0,-96.106732,True,1.443
19,0,19-May-2018,1,1,19,Sub19_Trial19_1,1,1,1,111.628403,True,1.443
19,0,19-May-2018,1,1,19,Sub19_Trial19_1,1,2,2,101.873762,True,1.443
19,0,19-May-2018,1,1,19,Sub19_Trial19_1,1,3,3,67.052495,True,1.443
19,0,19-May-2018,1,1,19,Sub19_Trial19_1,1,4,4,-8.509869,True,1.443
19,0,19-May-2018,1,1,19,Sub19_Trial19_1,1,5,5,-43.560843,True,1.443
19,0,19-May-2018,1,1,19,Sub19_Trial19_1,1,6,6,43.860828,True,1.443
19,0,19-May-2018,1,1,20,Sub19_Trial20_0,0,0,0,-6.279853,False,0.81
19,0,19-May-2018,1,1,20,Sub19_Trial20_0,0,1,1,-48.855952,False,0.81
19,0,19-May-2018,1,1,20,Sub19_Trial20_0,0,2,2,111.905864,False,0.81
19,0,19-May-2018,1,1,20,Sub19_Trial20_0,0,3,3,-76.514809,False,0.81
19,0,19-May-2018,1,1,20,Sub19_Trial20_0,0,4,4,129.160356,False,0.81
19,0,19-May-2018,1,1,20,Sub19_Trial20_0,0,5,5,-14.786775,False,0.81
19,0,19-May-2018,1,1,20,Sub19_Trial20_0,0,6,6,-49.675237,False,0.81
19,0,19-May-2018,1,1,20,Sub19_Trial20_1,1,0,0,82.407364,True,0.81
19,0,19-May-2018,1,1,20,Sub19_Trial20_1,1,1,1,43.256669,True,0.81
19,0,19-May-2018,1,1,20,Sub19_Trial20_1,1,2,2,32.272875,True,0.81
19,0,19-May-2018,1,1,20,Sub19_Trial20_1,1,3,3,87.583416,True,0.81
19,0,19-May-2018,1,1,20,Sub19_Trial20_1,1,4,4,11.299666,True,0.81
19,0,19-May-2018,1,1,20,Sub19_Trial20_1,1,5,5,90.534348,True,0.81
19,0,19-May-2018,1,1,20,Sub19_Trial20_1,1,6,6,-17.388716,True,0.81
19,0,19-May-2018,1,1,21,Sub19_Trial21_0,0,0,0,-31.927531,True,0.917
19,0,19-May-2018,1,1,21,Sub19_Trial21_0,0,1,1,-130.721193,True,0.917
19,0,19-May-2018,1,1,21,Sub19_Trial21_0,0,2,2,-38.217784,True,0.917
19,0,19-May-2018,1,1,21,Sub19_Trial21_0,0,3,3,-9.527454,True,0.917
19,0,19-May-2018,1,1,21,Sub19_Trial21_0,0,4,4,-99.395475,True,0.917
19,0,19-May-2018,1,1,21,Sub19_Trial21_0,0,5,5,121.005892,True,0.917
19,0,19-May-2018,1,1,21,Sub19_Trial21_0,0,6,6,60.826863,True,0.917
19,0,19-May-2018,1,1,21,Sub19_Trial21_1,1,0,0,-104.423874,False,0.917
19,0,19-May-2018,1,1,21,Sub19_Trial21_1,1,1,1,80.519047,False,0.917
19,0,19-May-2018,1,1,21,Sub19_Trial21_1,1,2,2,-84.003623,False,0.917
19,0,19-May-2018,1,1,21,Sub19_Trial21_1,1,3,3,185.86036,False,0.917
19,0,19-May-2018,1,1,21,Sub19_Trial21_1,1,4,4,-23.664227,False,0.917
19,0,19-May-2018,1,1,21,Sub19_Trial21_1,1,5,5,-120.500258,False,0.917
19,0,19-May-2018,1,1,21,Sub19_Trial21_1,1,6,6,66.806809,False,0.917
19,0,19-May-2018,1,1,22,Sub19_Trial22_0,0,0,0,-27.636812,False,0.825
19,0,19-May-2018,1,1,22,Sub19_Trial22_0,0,1,1,88.305397,False,0.825
19,0,19-May-2018,1,1,22,Sub19_Trial22_0,0,2,2,0.057508,False,0.825
19,0,19-May-2018,1,1,22,Sub19_Trial22_0,0,3,3,-53.333977,False,0.825
19,0,19-May-2018,1,1,22,Sub19_Trial22_0,0,4,4,21.114021,False,0.825
19,0,19-May-2018,1,1,22,Sub19_Trial22_0,0,5,5,-86.576176,False,0.825
19,0,19-May-2018,1,1,22,Sub19_Trial22_0,0,6,6,-37.063831,False,0.825
19,0,19-May-2018,1,1,22,Sub19_Trial22_1,1,0,0,-27.167753,True,0.825
19,0,19-May-2018,1,1,22,Sub19_Trial22_1,1,1,1,36.129459,True,0.825
19,0,19-May-2018,1,1,22,Sub19_Trial22_1,1,2,2,-3.589256,True,0.825
19,0,19-May-2018,1,1,22,Sub19_Trial22_1,1,3,3,40.434048,True,0.825
19,0,19-May-2018,1,1,22,Sub19_Trial22_1,1,4,4,78.396181,True,0.825
19,0,19-May-2018,1,1,22,Sub19_Trial22_1,1,5,5,24.118144,True,0.825
19,0,19-May-2018,1,1,22,Sub19_Trial22_1,1,6,6,-68.378389,True,0.825
19,0,19-May-2018,1,1,23,Sub19_Trial23_0,0,0,0,-131.555567,False,0.746
19,0,19-May-2018,1,1,23,Sub19_Trial23_0,0,1,1,-153.416338,False,0.746
19,0,19-May-2018,1,1,23,Sub19_Trial23_0,0,2,2,-92.205446,False,0.746
19,0,19-May-2018,1,1,23,Sub19_Trial23_0,0,3,3,11.082736,False,0.746
19,0,19-May-2018,1,1,23,Sub19_Trial23_0,0,4,4,180.237816,False,0.746
19,0,19-May-2018,1,1,23,Sub19_Trial23_0,0,5,5,-117.464582,False,0.746
19,0,19-May-2018,1,1,23,Sub19_Trial23_0,0,6,6,27.738987,False,0.746
19,0,19-May-2018,1,1,23,Sub19_Trial23_1,1,0,0,-52.370481,True,0.746
19,0,19-May-2018,1,1,23,Sub19_Trial23_1,1,1,1,-25.452608,True,0.746
19,0,19-May-2018,1,1,23,Sub19_Trial23_1,1,2,2,-26.162568,True,0.746
19,0,19-May-2018,1,1,23,Sub19_Trial23_1,1,3,3,-17.892009,True,0.746
19,0,19-May-2018,1,1,23,Sub19_Trial23_1,1,4,4,-117.522594,True,0.746
19,0,19-May-2018,1,1,23,Sub19_Trial23_1,1,5,5,174.983241,True,0.746
19,0,19-May-2018,1,1,23,Sub19_Trial23_1,1,6,6,-20.710399,True,0.746
19,0,19-May-2018,1,1,24,Sub19_Trial24_0,0,0,0,118.082868,False,0.944
19,0,19-May-2018,1,1,24,Sub19_Trial24_0,0,1,1,-0.794922,False,0.944
19,0,19-May-2018,1,1,24,Sub19_Trial24_0,0,2,2,28.767647,False,0.944
19,0,19-May-2018,1,1,24,Sub19_Trial24_0,0,3,3,47.964757,False,0.944
19,0,19-May-2018,1,1,24,Sub19_Trial24_0,0,4,4,58.520303,False,0.944
19,0,19-May-2018,1,1,24,Sub19_Trial24_0,0,5,5,-6.125424,False,0.944
19,0,19-May-2018,1,1,24,Sub19_Trial24_0,0,6,6,4.549007,False,0.944
19,0,19-May-2018,1,1,24,Sub19_Trial24_1,1,0,0,-88.357112,True,0.944
19,0,19-May-2018,1,1,24,Sub19_Trial24_1,1,1,1,-65.496767,True,0.944
19,0,19-May-2018,1,1,24,Sub19_Trial24_1,1,2,2,-41.736649,True,0.944
19,0,19-May-2018,1,1,24,Sub19_Trial24_1,1,3,3,5.67329,True,0.944
19,0,19-May-2018,1,1,24,Sub19_Trial24_1,1,4,4,57.9023,True,0.944
19,0,19-May-2018,1,1,24,Sub19_Trial24_1,1,5,5,26.109451,True,0.944
19,0,19-May-2018,1,1,24,Sub19_Trial24_1,1,6,6,77.130975,True,0.944
19,0,19-May-2018,1,1,25,Sub19_Trial25_0,0,0,0,61.590896,True,1.326
19,0,19-May-2018,1,1,25,Sub19_Trial25_0,0,1,1,-25.045435,True,1.326
19,0,19-May-2018,1,1,25,Sub19_Trial25_0,0,2,2,35.838341,True,1.326
19,0,19-May-2018,1,1,25,Sub19_Trial25_0,0,3,3,90.338315,True,1.326
19,0,19-May-2018,1,1,25,Sub19_Trial25_0,0,4,4,136.876027,True,1.326
19,0,19-May-2018,1,1,25,Sub19_Trial25_0,0,5,5,-3.536875,True,1.326
19,0,19-May-2018,1,1,25,Sub19_Trial25_0,0,6,6,131.127479,True,1.326
19,0,19-May-2018,1,1,25,Sub19_Trial25_1,1,0,0,33.496182,False,1.326
19,0,19-May-2018,1,1,25,Sub19_Trial25_1,1,1,1,72.245368,False,1.326
19,0,19-May-2018,1,1,25,Sub19_Trial25_1,1,2,2,92.7005,False,1.326
19,0,19-May-2018,1,1,25,Sub19_Trial25_1,1,3,3,74.339554,False,1.326
19,0,19-May-2018,1,1,25,Sub19_Trial25_1,1,4,4,83.600322,False,1.326
19,0,19-May-2018,1,1,25,Sub19_Trial25_1,1,5,5,-190.215939,False,1.326
19,0,19-May-2018,1,1,25,Sub19_Trial25_1,1,6,6,-20.950023,False,1.326
19,0,19-May-2018,1,1,26,Sub19_Trial26_0,0,0,0,45.895257,False,0.746
19,0,19-May-2018,1,1,26,Sub19_Trial26_0,0,1,1,136.874584,False,0.746
19,0,19-May-2018,1,1,26,Sub19_Trial26_0,0,2,2,-40.931902,False,0.746
19,0,19-May-2018,1,1,26,Sub19_Trial26_0,0,3,3,12.508505,False,0.746
19,0,19-May-2018,1,1,26,Sub19_Trial26_0,0,4,4,-23.788463,False,0.746
19,0,19-May-2018,1,1,26,Sub19_Trial26_0,0,5,5,88.868541,False,0.746
19,0,19-May-2018,1,1,26,Sub19_Trial26_0,0,6,6,63.999169,False,0.746
19,0,19-May-2018,1,1,26,Sub19_Trial26_1,1,0,0,-115.534492,True,0.746
19,0,19-May-2018,1,1,26,Sub19_Trial26_1,1,1,1,36.629768,True,0.746
19,0,19-May-2018,1,1,26,Sub19_Trial26_1,1,2,2,76.003996,True,0.746
19,0,19-May-2018,1,1,26,Sub19_Trial26_1,1,3,3,-22.712004,True,0.746
19,0,19-May-2018,1,1,26,Sub19_Trial26_1,1,4,4,157.429697,True,0.746
19,0,19-May-2018,1,1,26,Sub19_Trial26_1,1,5,5,-47.397405,True,0.746
19,0,19-May-2018,1,1,26,Sub19_Trial26_1,1,6,6,-33.288303,True,0.746
19,0,19-May-2018,1,1,27,Sub19_Trial27_0,0,0,0,-156.417219,True,2.237
19,0,19-May-2018,1,1,27,Sub19_Trial27_0,0,1,1,113.68672,True,2.237
19,0,19-May-2018,1,1,27,Sub19_Trial27_0,0,2,2,-134.079924,True,2.237
19,0,19-May-2018,1,1,27,Sub19_Trial27_0,0,3,3,-8.763656,True,2.237
19,0,19-May-2018,1,1,27,Sub19_Trial27_0,0,4,4,48.238974,True,2.237
19,0,19-May-2018,1,1,27,Sub19_Trial27_0,0,5,5,145.904005,True,2.237
19,0,19-May-2018,1,1,27,Sub19_Trial27_0,0,6,6,-158.548776,True,2.237
19,0,19-May-2018,1,1,27,Sub19_Trial27_1,1,0,0,-147.720676,False,2.237
19,0,19-May-2018,1,1,27,Sub19_Trial27_1,1,1,1,-71.054257,False,2.237
19,0,19-May-2018,1,1,27,Sub19_Trial27_1,1,2,2,17.739181,False,2.237
19,0,19-May-2018,1,1,27,Sub19_Trial27_1,1,3,3,-39.37304,False,2.237
19,0,19-May-2018,1,1,27,Sub19_Trial27_1,1,4,4,141.936966,False,2.237
19,0,19-May-2018,1,1,27,Sub19_Trial27_1,1,5,5,-116.446271,False,2.237
19,0,19-May-2018,1,1,27,Sub19_Trial27_1,1,6,6,88.911592,False,2.237
19,0,19-May-2018,1,1,28,Sub19_Trial28_0,0,0,0,60.527894,False,0.997
19,0,19-May-2018,1,1,28,Sub19_Trial28_0,0,1,1,-189.200306,False,0.997
19,0,19-May-2018,1,1,28,Sub19_Trial28_0,0,2,2,-51.492448,False,0.997
19,0,19-May-2018,1,1,28,Sub19_Trial28_0,0,3,3,64.860676,False,0.997
19,0,19-May-2018,1,1,28,Sub19_Trial28_0,0,4,4,15.937931,False,0.997
19,0,19-May-2018,1,1,28,Sub19_Trial28_0,0,5,5,-60.284796,False,0.997
19,0,19-May-2018,1,1,28,Sub19_Trial28_0,0,6,6,-107.871288,False,0.997
19,0,19-May-2018,1,1,28,Sub19_Trial28_1,1,0,0,88.717558,True,0.997
19,0,19-May-2018,1,1,28,Sub19_Trial28_1,1,1,1,125.193746,True,0.997
19,0,19-May-2018,1,1,28,Sub19_Trial28_1,1,2,2,86.518768,True,0.997
19,0,19-May-2018,1,1,28,Sub19_Trial28_1,1,3,3,-165.910158,True,0.997
19,0,19-May-2018,1,1,28,Sub19_Trial28_1,1,4,4,85.129639,True,0.997
19,0,19-May-2018,1,1,28,Sub19_Trial28_1,1,5,5,56.698675,True,0.997
19,0,19-May-2018,1,1,28,Sub19_Trial28_1,1,6,6,-11.869744,True,0.997
19,0,19-May-2018,1,1,29,Sub19_Trial29_0,0,0,0,18.392958,True,0.989
19,0,19-May-2018,1,1,29,Sub19_Trial29_0,0,1,1,-148.930645,True,0.989
19,0,19-May-2018,1,1,29,Sub19_Trial29_0,0,2,2,160.111394,True,0.989
19,0,19-May-2018,1,1,29,Sub19_Trial29_0,0,3,3,68.165212,True,0.989
19,0,19-May-2018,1,1,29,Sub19_Trial29_0,0,4,4,99.928608,True,0.989
19,0,19-May-2018,1,1,29,Sub19_Trial29_0,0,5,5,39.882247,True,0.989
19,0,19-May-2018,1,1,29,Sub19_Trial29_0,0,6,6,-49.449111,True,0.989
19,0,19-May-2018,1,1,29,Sub19_Trial29_1,1,0,0,50.750837,False,0.989
19,0,19-May-2018,1,1,29,Sub19_Trial29_1,1,1,1,112.91871,False,0.989
19,0,19-May-2018,1,1,29,Sub19_Trial29_1,1,2,2,10.457139,False,0.989
19,0,19-May-2018,1,1,29,Sub19_Trial29_1,1,3,3,-42.71301,False,0.989
19,0,19-May-2018,1,1,29,Sub19_Trial29_1,1,4,4,41.694539,False,0.989
19,0,19-May-2018,1,1,29,Sub19_Trial29_1,1,5,5,-51.956556,False,0.989
19,0,19-May-2018,1,1,29,Sub19_Trial29_1,1,6,6,-31.388455,False,0.989
19,0,19-May-2018,1,1,30,Sub19_Trial30_0,0,0,0,11.154502,True,0.742
19,0,19-May-2018,1,1,30,Sub19_Trial30_0,0,1,1,5.813317,True,0.742
19,0,19-May-2018,1,1,30,Sub19_Trial30_0,0,2,2,-5.31337,True,0.742
19,0,19-May-2018,1,1,30,Sub19_Trial30_0,0,3,3,-42.371589,True,0.742
19,0,19-May-2018,1,1,30,Sub19_Trial30_0,0,4,4,108.555076,True,0.742
19,0,19-May-2018,1,1,30,Sub19_Trial30_0,0,5,5,123.301987,True,0.742
19,0,19-May-2018,1,1,30,Sub19_Trial30_0,0,6,6,62.039077,True,0.742
19,0,19-May-2018,1,1,30,Sub19_Trial30_1,1,0,0,-117.144101,False,0.742
19,0,19-May-2018,1,1,30,Sub19_Trial30_1,1,1,1,-169.761576,False,0.742
19,0,19-May-2018,1,1,30,Sub19_Trial30_1,1,2,2,90.242307,False,0.742
19,0,19-May-2018,1,1,30,Sub19_Trial30_1,1,3,3,-3.519173,False,0.742
19,0,19-May-2018,1,1,30,Sub19_Trial30_1,1,4,4,-88.281576,False,0.742
19,0,19-May-2018,1,1,30,Sub19_Trial30_1,1,5,5,-41.57031,False,0.742
19,0,19-May-2018,1,1,30,Sub19_Trial30_1,1,6,6,-81.418093,False,0.742
19,0,19-May-2018,1,1,31,Sub19_Trial31_0,0,0,0,-87.328883,True,0.77
19,0,19-May-2018,1,1,31,Sub19_Trial31_0,0,1,1,185.81149,True,0.77
19,0,19-May-2018,1,1,31,Sub19_Trial31_0,0,2,2,71.555139,True,0.77
19,0,19-May-2018,1,1,31,Sub19_Trial31_0,0,3,3,-157.380528,True,0.77
19,0,19-May-2018,1,1,31,Sub19_Trial31_0,0,4,4,-20.659813,True,0.77
19,0,19-May-2018,1,1,31,Sub19_Trial31_0,0,5,5,23.979044,True,0.77
19,0,19-May-2018,1,1,31,Sub19_Trial31_0,0,6,6,-31.551423,True,0.77
19,0,19-May-2018,1,1,31,Sub19_Trial31_1,1,0,0,-66.522894,False,0.77
19,0,19-May-2018,1,1,31,Sub19_Trial31_1,1,1,1,-120.469678,False,0.77
19,0,19-May-2018,1,1,31,Sub19_Trial31_1,1,2,2,-32.71401,False,0.77
19,0,19-May-2018,1,1,31,Sub19_Trial31_1,1,3,3,79.478816,False,0.77
19,0,19-May-2018,1,1,31,Sub19_Trial31_1,1,4,4,-88.94069,False,0.77
19,0,19-May-2018,1,1,31,Sub19_Trial31_1,1,5,5,-124.128182,False,0.77
19,0,19-May-2018,1,1,31,Sub19_Trial31_1,1,6,6,-88.053389,False,0.77
19,0,19-May-2018,1,1,32,Sub19_Trial32_0,0,0,0,-91.59533,False,0.778
19,0,19-May-2018,1,1,32,Sub19_Trial32_0,0,1,1,73.065858,False,0.778
19,0,19-May-2018,1,1,32,Sub19_Trial32_0,0,2,2,67.623624,False,0.778
19,0,19-May-2018,1,1,32,Sub19_Trial32_0,0,3,3,-82.145297,False,0.778
19,0,19-May-2018,1,1,32,Sub19_Trial32_0,0,4,4,-119.421438,False,0.778
19,0,19-May-2018,1,1,32,Sub19_Trial32_0,0,5,5,-4.662437,False,0.778
19,0,19-May-2018,1,1,32,Sub19_Trial32_0,0,6,6,-56.330389,False,0.778
19,0,19-May-2018,1,1,32,Sub19_Trial32_1,1,0,0,124.922943,True,0.778
19,0,19-May-2018,1,1,32,Sub19_Trial32_1,1,1,1,19.635145,True,0.778
19,0,19-May-2018,1,1,32,Sub19_Trial32_1,1,2,2,11.945014,True,0.778
19,0,19-May-2018,1,1,32,Sub19_Trial32_1,1,3,3,-45.74719,True,0.778
19,0,19-May-2018,1,1,32,Sub19_Trial32_1,1,4,4,-43.629543,True,0.778
19,0,19-May-2018,1,1,32,Sub19_Trial32_1,1,5,5,50.812558,True,0.778
19,0,19-May-2018,1,1,32,Sub19_Trial32_1,1,6,6,-6.169413,True,0.778
19,0,19-May-2018,1,1,33,Sub19_Trial33_0,0,0,0,-2.815219,True,1.413
19,0,19-May-2018,1,1,33,Sub19_Trial33_0,0,1,1,-32.009613,True,1.413
19,0,19-May-2018,1,1,33,Sub19_Trial33_0,0,2,2,-15.792469,True,1.413
19,0,19-May-2018,1,1,33,Sub19_Trial33_0,0,3,3,-119.042388,True,1.413
19,0,19-May-2018,1,1,33,Sub19_Trial33_0,0,4,4,-31.146209,True,1.413
19,0,19-May-2018,1,1,33,Sub19_Trial33_0,0,5,5,-67.503481,True,1.413
19,0,19-May-2018,1,1,33,Sub19_Trial33_0,0,6,6,6.281297,True,1.413
19,0,19-May-2018,1,1,33,Sub19_Trial33_1,1,0,0,17.881121,False,1.413
19,0,19-May-2018,1,1,33,Sub19_Trial33_1,1,1,1,-11.740059,False,1.413
19,0,19-May-2018,1,1,33,Sub19_Trial33_1,1,2,2,100.782034,False,1.413
19,0,19-May-2018,1,1,33,Sub19_Trial33_1,1,3,3,20.328594,False,1.413
19,0,19-May-2018,1,1,33,Sub19_Trial33_1,1,4,4,49.741585,False,1.413
19,0,19-May-2018,1,1,33,Sub19_Trial33_1,1,5,5,-20.603765,False,1.413
19,0,19-May-2018,1,1,33,Sub19_Trial33_1,1,6,6,25.225774,False,1.413
19,0,19-May-2018,1,1,34,Sub19_Trial34_0,0,0,0,65.905791,False,1.173
19,0,19-May-2018,1,1,34,Sub19_Trial34_0,0,1,1,72.993675,False,1.173
19,0,19-May-2018,1,1,34,Sub19_Trial34_0,0,2,2,-40.910592,False,1.173
19,0,19-May-2018,1,1,34,Sub19_Trial34_0,0,3,3,47.181388,False,1.173
19,0,19-May-2018,1,1,34,Sub19_Trial34_0,0,4,4,33.885114,False,1.173
19,0,19-May-2018,1,1,34,Sub19_Trial34_0,0,5,5,18.605237,False,1.173
19,0,19-May-2018,1,1,34,Sub19_Trial34_0,0,6,6,95.045005,False,1.173
19,0,19-May-2018,1,1,34,Sub19_Trial34_1,1,0,0,6.962804,True,1.173
19,0,19-May-2018,1,1,34,Sub19_Trial34_1,1,1,1,56.617873,True,1.173
19,0,19-May-2018,1,1,34,Sub19_Trial34_1,1,2,2,29.359715,True,1.173
19,0,19-May-2018,1,1,34,Sub19_Trial34_1,1,3,3,121.33039,True,1.173
19,0,19-May-2018,1,1,34,Sub19_Trial34_1,1,4,4,-134.696926,True,1.173
19,0,19-May-2018,1,1,34,Sub19_Trial34_1,1,5,5,132.788837,True,1.173
19,0,19-May-2018,1,1,34,Sub19_Trial34_1,1,6,6,-94.496132,True,1.173
19,0,19-May-2018,1,1,35,Sub19_Trial35_0,0,0,0,19.665996,False,2.301
19,0,19-May-2018,1,1,35,Sub19_Trial35_0,0,1,1,-23.982938,False,2.301
19,0,19-May-2018,1,1,35,Sub19_Trial35_0,0,2,2,-137.211942,False,2.301
19,0,19-May-2018,1,1,35,Sub19_Trial35_0,0,3,3,-23.962503,False,2.301
19,0,19-May-2018,1,1,35,Sub19_Trial35_0,0,4,4,-134.125147,False,2.301
19,0,19-May-2018,1,1,35,Sub19_Trial35_0,0,5,5,-0.489225,False,2.301
19,0,19-May-2018,1,1,35,Sub19_Trial35_0,0,6,6,66.205443,False,2.301
19,0,19-May-2018,1,1,35,Sub19_Trial35_1,1,0,0,-38.58495,True,2.301
19,0,19-May-2018,1,1,35,Sub19_Trial35_1,1,1,1,58.8359,True,2.301
19,0,19-May-2018,1,1,35,Sub19_Trial35_1,1,2,2,41.169421,True,2.301
19,0,19-May-2018,1,1,35,Sub19_Trial35_1,1,3,3,-10.275796,True,2.301
19,0,19-May-2018,1,1,35,Sub19_Trial35_1,1,4,4,-78.469605,True,2.301
19,0,19-May-2018,1,1,35,Sub19_Trial35_1,1,5,5,-114.597229,True,2.301
19,0,19-May-2018,1,1,35,Sub19_Trial35_1,1,6,6,66.15486,True,2.301
19,0,19-May-2018,1,1,36,Sub19_Trial36_0,0,0,0,116.460075,False,0.946
19,0,19-May-2018,1,1,36,Sub19_Trial36_0,0,1,1,92.415754,False,0.946
19,0,19-May-2018,1,1,36,Sub19_Trial36_0,0,2,2,104.341541,False,0.946
19,0,19-May-2018,1,1,36,Sub19_Trial36_0,0,3,3,-25.866901,False,0.946
19,0,19-May-2018,1,1,36,Sub19_Trial36_0,0,4,4,81.092947,False,0.946
19,0,19-May-2018,1,1,36,Sub19_Trial36_0,0,5,5,69.932976,False,0.946
19,0,19-May-2018,1,1,36,Sub19_Trial36_0,0,6,6,-121.780123,False,0.946
19,0,19-May-2018,1,1,36,Sub19_Trial36_1,1,0,0,-12.733549,True,0.946
19,0,19-May-2018,1,1,36,Sub19_Trial36_1,1,1,1,-103.652848,True,0.946
19,0,19-May-2018,1,1,36,Sub19_Trial36_1,1,2,2,-71.439497,True,0.946
19,0,19-May-2018,1,1,36,Sub19_Trial36_1,1,3,3,31.181421,True,0.946
19,0,19-May-2018,1,1,36,Sub19_Trial36_1,1,4,4,139.457666,True,0.946
19,0,19-May-2018,1,1,36,Sub19_Trial36_1,1,5,5,141.09528,True,0.946
19,0,19-May-2018,1,1,36,Sub19_Trial36_1,1,6,6,-10.069413,True,0.946
19,0,19-May-2018,1,1,37,Sub19_Trial37_0,0,0,0,-22.506619,True,1.077
19,0,19-May-2018,1,1,37,Sub19_Trial37_0,0,1,1,54.937486,True,1.077
19,0,19-May-2018,1,1,37,Sub19_Trial37_0,0,2,2,41.034211,True,1.077
19,0,19-May-2018,1,1,37,Sub19_Trial37_0,0,3,3,92.830687,True,1.077
19,0,19-May-2018,1,1,37,Sub19_Trial37_0,0,4,4,136.861534,True,1.077
19,0,19-May-2018,1,1,37,Sub19_Trial37_0,0,5,5,-38.642706,True,1.077
19,0,19-May-2018,1,1,37,Sub19_Trial37_0,0,6,6,6.638825,True,1.077
19,0,19-May-2018,1,1,37,Sub19_Trial37_1,1,0,0,-110.523936,False,1.077
19,0,19-May-2018,1,1,37,Sub19_Trial37_1,1,1,1,-38.943714,False,1.077
19,0,19-May-2018,1,1,37,Sub19_Trial37_1,1,2,2,100.470555,False,1.077
19,0,19-May-2018,1,1,37,Sub19_Trial37_1,1,3,3,-116.044808,False,1.077
19,0,19-May-2018,1,1,37,Sub19_Trial37_1,1,4,4,-120.454877,False,1.077
19,0,19-May-2018,1,1,37,Sub19_Trial37_1,1,5,5,-0.44129,False,1.077
19,0,19-May-2018,1,1,37,Sub19_Trial37_1,1,6,6,-96.786225,False,1.077
19,0,19-May-2018,1,1,38,Sub19_Trial38_0,0,0,0,-80.788335,False,1.404
19,0,19-May-2018,1,1,38,Sub19_Trial38_0,0,1,1,-22.789262,False,1.404
19,0,19-May-2018,1,1,38,Sub19_Trial38_0,0,2,2,-64.304958,False,1.404
19,0,19-May-2018,1,1,38,Sub19_Trial38_0,0,3,3,7.73832,False,1.404
19,0,19-May-2018,1,1,38,Sub19_Trial38_0,0,4,4,-105.325457,False,1.404
19,0,19-May-2018,1,1,38,Sub19_Trial38_0,0,5,5,-116.424064,False,1.404
19,0,19-May-2018,1,1,38,Sub19_Trial38_0,0,6,6,-75.806326,False,1.404
19,0,19-May-2018,1,1,38,Sub19_Trial38_1,1,0,0,-4.574503,True,1.404
19,0,19-May-2018,1,1,38,Sub19_Trial38_1,1,1,1,33.56785,True,1.404
19,0,19-May-2018,1,1,38,Sub19_Trial38_1,1,2,2,12.886531,True,1.404
19,0,19-May-2018,1,1,38,Sub19_Trial38_1,1,3,3,-28.630601,True,1.404
19,0,19-May-2018,1,1,38,Sub19_Trial38_1,1,4,4,30.571013,True,1.404
19,0,19-May-2018,1,1,38,Sub19_Trial38_1,1,5,5,-184.591132,True,1.404
19,0,19-May-2018,1,1,38,Sub19_Trial38_1,1,6,6,180.69361,True,1.404
19,0,19-May-2018,1,1,39,Sub19_Trial39_0,0,0,0,-124.88997,True,1.354
19,0,19-May-2018,1,1,39,Sub19_Trial39_0,0,1,1,-79.661318,True,1.354
19,0,19-May-2018,1,1,39,Sub19_Trial39_0,0,2,2,-47.513674,True,1.354
19,0,19-May-2018,1,1,39,Sub19_Trial39_0,0,3,3,-75.864405,True,1.354
19,0,19-May-2018,1,1,39,Sub19_Trial39_0,0,4,4,-31.908518,True,1.354
19,0,19-May-2018,1,1,39,Sub19_Trial39_0,0,5,5,140.293017,True,1.354
19,0,19-May-2018,1,1,39,Sub19_Trial39_0,0,6,6,-34.121557,True,1.354
19,0,19-May-2018,1,1,39,Sub19_Trial39_1,1,0,0,-88.95846,False,1.354
19,0,19-May-2018,1,1,39,Sub19_Trial39_1,1,1,1,-30.372572,False,1.354
19,0,19-May-2018,1,1,39,Sub19_Trial39_1,1,2,2,-101.943282,False,1.354
19,0,19-May-2018,1,1,39,Sub19_Trial39_1,1,3,3,40.96552,False,1.354
19,0,19-May-2018,1,1,39,Sub19_Trial39_1,1,4,4,-16.81162,False,1.354
19,0,19-May-2018,1,1,39,Sub19_Trial39_1,1,5,5,35.03146,False,1.354
19,0,19-May-2018,1,1,39,Sub19_Trial39_1,1,6,6,84.274865,False,1.354
19,0,19-May-2018,1,1,40,Sub19_Trial40_0,0,0,0,45.74127,False,1.454
19,0,19-May-2018,1,1,40,Sub19_Trial40_0,0,1,1,110.569169,False,1.454
19,0,19-May-2018,1,1,40,Sub19_Trial40_0,0,2,2,-181.328493,False,1.454
19,0,19-May-2018,1,1,40,Sub19_Trial40_0,0,3,3,32.17482,False,1.454
19,0,19-May-2018,1,1,40,Sub19_Trial40_0,0,4,4,-51.809924,False,1.454
19,0,19-May-2018,1,1,40,Sub19_Trial40_0,0,5,5,-71.714671,False,1.454
19,0,19-May-2018,1,1,40,Sub19_Trial40_0,0,6,6,-57.370402,False,1.454
19,0,19-May-2018,1,1,40,Sub19_Trial40_1,1,0,0,-8.958927,True,1.454
19,0,19-May-2018,1,1,40,Sub19_Trial40_1,1,1,1,-179.063121,True,1.454
19,0,19-May-2018,1,1,40,Sub19_Trial40_1,1,2,2,6.886308,True,1.454
19,0,19-May-2018,1,1,40,Sub19_Trial40_1,1,3,3,-40.722439,True,1.454
19,0,19-May-2018,1,1,40,Sub19_Trial40_1,1,4,4,165.482769,True,1.454
19,0,19-May-2018,1,1,40,Sub19_Trial40_1,1,5,5,-94.392016,True,1.454
19,0,19-May-2018,1,1,40,Sub19_Trial40_1,1,6,6,4.780354,True,1.454
19,0,19-May-2018,1,1,41,Sub19_Trial41_0,0,0,0,98.89252,True,0.784
19,0,19-May-2018,1,1,41,Sub19_Trial41_0,0,1,1,165.970794,True,0.784
19,0,19-May-2018,1,1,41,Sub19_Trial41_0,0,2,2,3.719815,True,0.784
19,0,19-May-2018,1,1,41,Sub19_Trial41_0,0,3,3,-133.687711,True,0.784
19,0,19-May-2018,1,1,41,Sub19_Trial41_0,0,4,4,182.512049,True,0.784
19,0,19-May-2018,1,1,41,Sub19_Trial41_0,0,5,5,31.538544,True,0.784
19,0,19-May-2018,1,1,41,Sub19_Trial41_0,0,6,6,77.63436,True,0.784
19,0,19-May-2018,1,1,41,Sub19_Trial41_1,1,0,0,182.384951,False,0.784
19,0,19-May-2018,1,1,41,Sub19_Trial41_1,1,1,1,-80.793246,False,0.784
19,0,19-May-2018,1,1,41,Sub19_Trial41_1,1,2,2,-35.190154,False,0.784
19,0,19-May-2018,1,1,41,Sub19_Trial41_1,1,3,3,-124.197554,False,0.784
19,0,19-May-2018,1,1,41,Sub19_Trial41_1,1,4,4,97.021679,False,0.784
19,0,19-May-2018,1,1,41,Sub19_Trial41_1,1,5,5,-50.025998,False,0.784
19,0,19-May-2018,1,1,41,Sub19_Trial41_1,1,6,6,153.365867,False,0.784
19,0,19-May-2018,1,1,42,Sub19_Trial42_0,0,0,0,49.179759,True,1.338
19,0,19-May-2018,1,1,42,Sub19_Trial42_0,0,1,1,-43.840514,True,1.338
19,0,19-May-2018,1,1,42,Sub19_Trial42_0,0,2,2,26.953099,True,1.338
19,0,19-May-2018,1,1,42,Sub19_Trial42_0,0,3,3,9.549139,True,1.338
19,0,19-May-2018,1,1,42,Sub19_Trial42_0,0,4,4,88.311404,True,1.338
19,0,19-May-2018,1,1,42,Sub19_Trial42_0,0,5,5,51.000094,True,1.338
19,0,19-May-2018,1,1,42,Sub19_Trial42_0,0,6,6,8.674313,True,1.338
19,0,19-May-2018,1,1,42,Sub19_Trial42_1,1,0,0,25.096685,False,1.338
19,0,19-May-2018,1,1,42,Sub19_Trial42_1,1,1,1,-1.756027,False,1.338
19,0,19-May-2018,1,1,42,Sub19_Trial42_1,1,2,2,-55.995491,False,1.338
19,0,19-May-2018,1,1,42,Sub19_Trial42_1,1,3,3,98.086007,False,1.338
19,0,19-May-2018,1,1,42,Sub19_Trial42_1,1,4,4,46.199374,False,1.338
19,0,19-May-2018,1,1,42,Sub19_Trial42_1,1,5,5,29.291861,False,1.338
19,0,19-May-2018,1,1,42,Sub19_Trial42_1,1,6,6,-17.507337,False,1.338
19,0,19-May-2018,1,1,43,Sub19_Trial43_0,0,0,0,-106.771959,True,0.912
19,0,19-May-2018,1,1,43,Sub19_Trial43_0,0,1,1,-53.73304,True,0.912
19,0,19-May-2018,1,1,43,Sub19_Trial43_0,0,2,2,142.046215,True,0.912
19,0,19-May-2018,1,1,43,Sub19_Trial43_0,0,3,3,-62.509107,True,0.912
19,0,19-May-2018,1,1,43,Sub19_Trial43_0,0,4,4,-104.441657,True,0.912
19,0,19-May-2018,1,1,43,Sub19_Trial43_0,0,5,5,80.642684,True,0.912
19,0,19-May-2018,1,1,43,Sub19_Trial43_0,0,6,6,-4.721321,True,0.912
19,0,19-May-2018,1,1,43,Sub19_Trial43_1,1,0,0,5.407714,False,0.912
19,0,19-May-2018,1,1,43,Sub19_Trial43_1,1,1,1,124.775437,False,0.912
19,0,19-May-2018,1,1,43,Sub19_Trial43_1,1,2,2,-40.077529,False,0.912
19,0,19-May-2018,1,1,43,Sub19_Trial43_1,1,3,3,-49.422306,False,0.912
19,0,19-May-2018,1,1,43,Sub19_Trial43_1,1,4,4,-91.692447,False,0.912
19,0,19-May-2018,1,1,43,Sub19_Trial43_1,1,5,5,-107.974827,False,0.912
19,0,19-May-2018,1,1,43,Sub19_Trial43_1,1,6,6,-35.27123,False,0.912
19,0,19-May-2018,1,1,44,Sub19_Trial44_0,0,0,0,142.074792,True,0.738
19,0,19-May-2018,1,1,44,Sub19_Trial44_0,0,1,1,-92.352854,True,0.738
19,0,19-May-2018,1,1,44,Sub19_Trial44_0,0,2,2,-1.77313,True,0.738
19,0,19-May-2018,1,1,44,Sub19_Trial44_0,0,3,3,49.967929,True,0.738
19,0,19-May-2018,1,1,44,Sub19_Trial44_0,0,4,4,31.485822,True,0.738
19,0,19-May-2018,1,1,44,Sub19_Trial44_0,0,5,5,65.39553,True,0.738
19,0,19-May-2018,1,1,44,Sub19_Trial44_0,0,6,6,-8.046387,True,0.738
19,0,19-May-2018,1,1,44,Sub19_Trial44_1,1,0,0,35.674213,False,0.738
19,0,19-May-2018,1,1,44,Sub19_Trial44_1,1,1,1,37.47813,False,0.738
19,0,19-May-2018,1,1,44,Sub19_Trial44_1,1,2,2,-138.607385,False,0.738
19,0,19-May-2018,1,1,44,Sub19_Trial44_1,1,3,3,-4.38618,False,0.738
19,0,19-May-2018,1,1,44,Sub19_Trial44_1,1,4,4,-107.101579,False,0.738
19,0,19-May-2018,1,1,44,Sub19_Trial44_1,1,5,5,-145.814047,False,0.738
19,0,19-May-2018,1,1,44,Sub19_Trial44_1,1,6,6,-38.109425,False,0.738
19,0,19-May-2018,1,1,45,Sub19_Trial45_0,0,0,0,170.355556,False,1.465
19,0,19-May-2018,1,1,45,Sub19_Trial45_0,0,1,1,61.022152,False,1.465
19,0,19-May-2018,1,1,45,Sub19_Trial45_0,0,2,2,98.211157,False,1.465
19,0,19-May-2018,1,1,45,Sub19_Trial45_0,0,3,3,5.996363,False,1.465
19,0,19-May-2018,1,1,45,Sub19_Trial45_0,0,4,4,-42.474145,False,1.465
19,0,19-May-2018,1,1,45,Sub19_Trial45_0,0,5,5,-134.072173,False,1.465
19,0,19-May-2018,1,1,45,Sub19_Trial45_0,0,6,6,124.127203,False,1.465
19,0,19-May-2018,1,1,45,Sub19_Trial45_1,1,0,0,-174.152859,True,1.465
19,0,19-May-2018,1,1,45,Sub19_Trial45_1,1,1,1,129.173343,True,1.465
19,0,19-May-2018,1,1,45,Sub19_Trial45_1,1,2,2,-139.78793,True,1.465
19,0,19-May-2018,1,1,45,Sub19_Trial45_1,1,3,3,-149.865416,True,1.465
19,0,19-May-2018,1,1,45,Sub19_Trial45_1,1,4,4,134.952284,True,1.465
19,0,19-May-2018,1,1,45,Sub19_Trial45_1,1,5,5,-70.032261,True,1.465
19,0,19-May-2018,1,1,45,Sub19_Trial45_1,1,6,6,-27.179858,True,1.465
19,0,19-May-2018,1,1,46,Sub19_Trial46_0,0,0,0,-129.359664,False,1.013
19,0,19-May-2018,1,1,46,Sub19_Trial46_0,0,1,1,-119.496054,False,1.013
19,0,19-May-2018,1,1,46,Sub19_Trial46_0,0,2,2,94.223956,False,1.013
19,0,19-May-2018,1,1,46,Sub19_Trial46_0,0,3,3,134.440856,False,1.013
19,0,19-May-2018,1,1,46,Sub19_Trial46_0,0,4,4,-74.944759,False,1.013
19,0,19-May-2018,1,1,46,Sub19_Trial46_0,0,5,5,-150.536655,False,1.013
19,0,19-May-2018,1,1,46,Sub19_Trial46_0,0,6,6,99.149769,False,1.013
19,0,19-May-2018,1,1,46,Sub19_Trial46_1,1,0,0,-36.975679,True,1.013
19,0,19-May-2018,1,1,46,Sub19_Trial46_1,1,1,1,-6.178675,True,1.013
19,0,19-May-2018,1,1,46,Sub19_Trial46_1,1,2,2,-93.42894,True,1.013
19,0,19-May-2018,1,1,46,Sub19_Trial46_1,1,3,3,3.44929,True,1.013
19,0,19-May-2018,1,1,46,Sub19_Trial46_1,1,4,4,-15.844037,True,1.013
19,0,19-May-2018,1,1,46,Sub19_Trial46_1,1,5,5,84.50226,True,1.013
19,0,19-May-2018,1,1,46,Sub19_Trial46_1,1,6,6,63.339922,True,1.013
19,0,19-May-2018,1,1,47,Sub19_Trial47_0,0,0,0,138.251006,True,1.436
19,0,19-May-2018,1,1,47,Sub19_Trial47_0,0,1,1,-20.855366,True,1.436
19,0,19-May-2018,1,1,47,Sub19_Trial47_0,0,2,2,-36.598701,True,1.436
19,0,19-May-2018,1,1,47,Sub19_Trial47_0,0,3,3,-3.004299,True,1.436
19,0,19-May-2018,1,1,47,Sub19_Trial47_0,0,4,4,133.030288,True,1.436
19,0,19-May-2018,1,1,47,Sub19_Trial47_0,0,5,5,13.462512,True,1.436
19,0,19-May-2018,1,1,47,Sub19_Trial47_0,0,6,6,-68.226453,True,1.436
19,0,19-May-2018,1,1,47,Sub19_Trial47_1,1,0,0,6.250582,False,1.436
19,0,19-May-2018,1,1,47,Sub19_Trial47_1,1,1,1,82.069391,False,1.436
19,0,19-May-2018,1,1,47,Sub19_Trial47_1,1,2,2,2.887603,False,1.436
19,0,19-May-2018,1,1,47,Sub19_Trial47_1,1,3,3,-56.941294,False,1.436
19,0,19-May-2018,1,1,47,Sub19_Trial47_1,1,4,4,180.533515,False,1.436
19,0,19-May-2018,1,1,47,Sub19_Trial47_1,1,5,5,-25.00473,False,1.436
19,0,19-May-2018,1,1,47,Sub19_Trial47_1,1,6,6,17.230432,False,1.436
19,0,19-May-2018,1,1,48,Sub19_Trial48_0,0,0,0,128.91395,True,1.322
19,0,19-May-2018,1,1,48,Sub19_Trial48_0,0,1,1,42.352215,True,1.322
19,0,19-May-2018,1,1,48,Sub19_Trial48_0,0,2,2,32.017087,True,1.322
19,0,19-May-2018,1,1,48,Sub19_Trial48_0,0,3,3,102.498701,True,1.322
19,0,19-May-2018,1,1,48,Sub19_Trial48_0,0,4,4,63.644869,True,1.322
19,0,19-May-2018,1,1,48,Sub19_Trial48_0,0,5,5,66.236147,True,1.322
19,0,19-May-2018,1,1,48,Sub19_Trial48_0,0,6,6,-87.430145,True,1.322
19,0,19-May-2018,1,1,48,Sub19_Trial48_1,1,0,0,-6.03897,False,1.322
19,0,19-May-2018,1,1,48,Sub19_Trial48_1,1,1,1,-58.488441,False,1.322
19,0,19-May-2018,1,1,48,Sub19_Trial48_1,1,2,2,105.691499,False,1.322
19,0,19-May-2018,1,1,48,Sub19_Trial48_1,1,3,3,13.552709,False,1.322
19,0,19-May-2018,1,1,48,Sub19_Trial48_1,1,4,4,75.65829,False,1.322
19,0,19-May-2018,1,1,48,Sub19_Trial48_1,1,5,5,-59.322564,False,1.322
19,0,19-May-2018,1,1,48,Sub19_Trial48_1,1,6,6,164.168685,False,1.322
19,0,19-May-2018,1,1,49,Sub19_Trial49_0,0,0,0,-123.637628,True,1.427
19,0,19-May-2018,1,1,49,Sub19_Trial49_0,0,1,1,5.527668,True,1.427
19,0,19-May-2018,1,1,49,Sub19_Trial49_0,0,2,2,-143.344462,True,1.427
19,0,19-May-2018,1,1,49,Sub19_Trial49_0,0,3,3,5.426668,True,1.427
19,0,19-May-2018,1,1,49,Sub19_Trial49_0,0,4,4,74.897227,True,1.427
19,0,19-May-2018,1,1,49,Sub19_Trial49_0,0,5,5,-20.263724,True,1.427
19,0,19-May-2018,1,1,49,Sub19_Trial49_0,0,6,6,2.344734,True,1.427
19,0,19-May-2018,1,1,49,Sub19_Trial49_1,1,0,0,-189.4111,False,1.427
19,0,19-May-2018,1,1,49,Sub19_Trial49_1,1,1,1,110.784735,False,1.427
19,0,19-May-2018,1,1,49,Sub19_Trial49_1,1,2,2,-78.272219,False,1.427
19,0,19-May-2018,1,1,49,Sub19_Trial49_1,1,3,3,-15.088066,False,1.427
19,0,19-May-2018,1,1,49,Sub19_Trial49_1,1,4,4,-34.843848,False,1.427
19,0,19-May-2018,1,1,49,Sub19_Trial49_1,1,5,5,-38.765989,False,1.427
19,0,19-May-2018,1,1,49,Sub19_Trial49_1,1,6,6,114.074153,False,1.427
19,0,19-May-2018,1,1,50,Sub19_Trial50_0,0,0,0,27.63652,False,1.04
19,0,19-May-2018,1,1,50,Sub19_Trial50_0,0,1,1,20.853909,False,1.04
19,0,19-May-2018,1,1,50,Sub19_Trial50_0,0,2,2,31.004296,False,1.04
19,0,19-May-2018,1,1,50,Sub19_Trial50_0,0,3,3,87.342777,False,1.04
19,0,19-May-2018,1,1,50,Sub19_Trial50_0,0,4,4,-92.675511,False,1.04
19,0,19-May-2018,1,1,50,Sub19_Trial50_0,0,5,5,-97.740743,False,1.04
19,0,19-May-2018,1,1,50,Sub19_Trial50_0,0,6,6,77.854489,False,1.04
19,0,19-May-2018,1,1,50,Sub19_Trial50_1,1,0,0,64.579149,True,1.04
19,0,19-May-2018,1,1,50,Sub19_Trial50_1,1,1,1,16.976184,True,1.04
19,0,19-May-2018,1,1,50,Sub19_Trial50_1,1,2,2,58.098102,True,1.04
19,0,19-May-2018,1,1,50,Sub19_Trial50_1,1,3,3,1.833892,True,1.04
19,0,19-May-2018,1,1,50,Sub19_Trial50_1,1,4,4,64.738025,True,1.04
19,0,19-May-2018,1,1,50,Sub19_Trial50_1,1,5,5,83.473874,True,1.04
19,0,19-May-2018,1,1,50,Sub19_Trial50_1,1,6,6,-17.722643,True,1.04
19,0,19-May-2018,1,2,51,Sub19_Trial51_0,0,0,0,-56.622085,True,1.047
19,0,19-May-2018,1,2,51,Sub19_Trial51_0,0,1,1,-81.152268,True,1.047
19,0,19-May-2018,1,2,51,Sub19_Trial51_0,0,2,2,-175.758439,True,1.047
19,0,19-May-2018,1,2,51,Sub19_Trial51_0,0,3,3,-34.645137,True,1.047
19,0,19-May-2018,1,2,51,Sub19_Trial51_0,0,4,4,101.892738,True,1.047
19,0,19-May-2018,1,2,51,Sub19_Trial51_0,0,5,5,-52.404713,True,1.047
19,0,19-May-2018,1,2,51,Sub19_Trial51_0,0,6,6,-30.85904,True,1.047
19,0,19-May-2018,1,2,51,Sub19_Trial51_1,1,0,0,39.531771,False,1.047
19,0,19-May-2018,1,2,51,Sub19_Trial51_1,1,1,1,-83.821164,False,1.047
19,0,19-May-2018,1,2,51,Sub19_Trial51_1,1,2,2,-22.987402,False,1.047
19,0,19-May-2018,1,2,51,Sub19_Trial51_1,1,3,3,74.554237,False,1.047
19,0,19-May-2018,1,2,51,Sub19_Trial51_1,1,4,4,-10.416665,False,1.047
19,0,19-May-2018,1,2,51,Sub19_Trial51_1,1,5,5,-82.78866,False,1.047
19,0,19-May-2018,1,2,51,Sub19_Trial51_1,1,6,6,-105.30758,False,1.047
19,0,19-May-2018,1,2,52,Sub19_Trial52_0,0,0,0,26.786163,True,1.533
19,0,19-May-2018,1,2,52,Sub19_Trial52_0,0,1,1,57.266187,True,1.533
19,0,19-May-2018,1,2,52,Sub19_Trial52_0,0,2,2,-180.649456,True,1.533
19,0,19-May-2018,1,2,52,Sub19_Trial52_0,0,3,3,47.311915,True,1.533
19,0,19-May-2018,1,2,52,Sub19_Trial52_0,0,4,4,93.785562,True,1.533
19,0,19-May-2018,1,2,52,Sub19_Trial52_0,0,5,5,124.608914,True,1.533
19,0,19-May-2018,1,2,52,Sub19_Trial52_0,0,6,6,25.313196,True,1.533
19,0,19-May-2018,1,2,52,Sub19_Trial52_1,1,0,0,24.468918,False,1.533
19,0,19-May-2018,1,2,52,Sub19_Trial52_1,1,1,1,43.012543,False,1.533
19,0,19-May-2018,1,2,52,Sub19_Trial52_1,1,2,2,76.661608,False,1.533
19,0,19-May-2018,1,2,52,Sub19_Trial52_1,1,3,3,67.879852,False,1.533
19,0,19-May-2018,1,2,52,Sub19_Trial52_1,1,4,4,-9.771207,False,1.533
19,0,19-May-2018,1,2,52,Sub19_Trial52_1,1,5,5,-15.576516,False,1.533
19,0,19-May-2018,1,2,52,Sub19_Trial52_1,1,6,6,-126.341495,False,1.533
19,0,19-May-2018,1,2,53,Sub19_Trial53_0,0,0,0,-8.076638,False,0.596
19,0,19-May-2018,1,2,53,Sub19_Trial53_0,0,1,1,63.061395,False,0.596
19,0,19-May-2018,1,2,53,Sub19_Trial53_0,0,2,2,70.460587,False,0.596
19,0,19-May-2018,1,2,53,Sub19_Trial53_0,0,3,3,1.116563,False,0.596
19,0,19-May-2018,1,2,53,Sub19_Trial53_0,0,4,4,-91.774563,False,0.596
19,0,19-May-2018,1,2,53,Sub19_Trial53_0,0,5,5,-15.146279,False,0.596
19,0,19-May-2018,1,2,53,Sub19_Trial53_0,0,6,6,178.866417,False,0.596
19,0,19-May-2018,1,2,53,Sub19_Trial53_1,1,0,0,2.869778,True,0.596
19,0,19-May-2018,1,2,53,Sub19_Trial53_1,1,1,1,-10.328281,True,0.596
19,0,19-May-2018,1,2,53,Sub19_Trial53_1,1,2,2,-76.727806,True,0.596
19,0,19-May-2018,1,2,53,Sub19_Trial53_1,1,3,3,34.150185,True,0.596
19,0,19-May-2018,1,2,53,Sub19_Trial53_1,1,4,4,45.182983,True,0.596
19,0,19-May-2018,1,2,53,Sub19_Trial53_1,1,5,5,49.400435,True,0.596
19,0,19-May-2018,1,2,53,Sub19_Trial53_1,1,6,6,-93.695022,True,0.596
19,0,19-May-2018,1,2,54,Sub19_Trial54_0,0,0,0,-28.777953,False,0.874
19,0,19-May-2018,1,2,54,Sub19_Trial54_0,0,1,1,-17.097727,False,0.874
19,0,19-May-2018,1,2,54,Sub19_Trial54_0,0,2,2,145.961382,False,0.874
19,0,19-May-2018,1,2,54,Sub19_Trial54_0,0,3,3,-34.393964,False,0.874
19,0,19-May-2018,1,2,54,Sub19_Trial54_0,0,4,4,25.889226,False,0.874
19,0,19-May-2018,1,2,54,Sub19_Trial54_0,0,5,5,-37.416323,False,0.874
19,0,19-May-2018,1,2,54,Sub19_Trial54_0,0,6,6,-100.891623,False,0.874
19,0,19-May-2018,1,2,54,Sub19_Trial54_1,1,0,0,139.463959,True,0.874
19,0,19-May-2018,1,2,54,Sub19_Trial54_1,1,1,1,-48.723849,True,0.874
19,0,19-May-2018,1,2,54,Sub19_Trial54_1,1,2,2,-56.723117,True,0.874
19,0,19-May-2018,1,2,54,Sub19_Trial54_1,1,3,3,-12.772712,True,0.874
19,0,19-May-2018,1,2,54,Sub19_Trial54_1,1,4,4,31.669695,True,0.874
19,0,19-May-2018,1,2,54,Sub19_Trial54_1,1,5,5,-0.197278,True,0.874
19,0,19-May-2018,1,2,54,Sub19_Trial54_1,1,6,6,65.9127,True,0.874
19,0,19-May-2018,1,2,55,Sub19_Trial55_0,0,0,0,72.489682,False,0.973
19,0,19-May-2018,1,2,55,Sub19_Trial55_0,0,1,1,-88.858825,False,0.973
19,0,19-May-2018,1,2,55,Sub19_Trial55_0,0,2,2,-53.231134,False,0.973
19,0,19-May-2018,1,2,55,Sub19_Trial55_0,0,3,3,83.620009,False,0.973
19,0,19-May-2018,1,2,55,Sub19_Trial55_0,0,4,4,35.347616,False,0.973
19,0,19-May-2018,1,2,55,Sub19_Trial55_0,0,5,5,-101.409287,False,0.973
19,0,19-May-2018,1,2,55,Sub19_Trial55_0,0,6,6,-94.233906,False,0.973
19,0,19-May-2018,1,2,55,Sub19_Trial55_1,1,0,0,-30.95905,True,0.973
19,0,19-May-2018,1,2,55,Sub19_Trial55_1,1,1,1,98.674308,True,0.973
19,0,19-May-2018,1,2,55,Sub19_Trial55_1,1,2,2,-18.974432,True,0.973
19,0,19-May-2018,1,2,55,Sub19_Trial55_1,1,3,3,108.693889,True,0.973
19,0,19-May-2018,1,2,55,Sub19_Trial55_1,1,4,4,54.555386,True,0.973
19,0,19-May-2018,1,2,55,Sub19_Trial55_1,1,5,5,-55.495463,True,0.973
19,0,19-May-2018,1,2,55,Sub19_Trial55_1,1,6,6,101.791372,True,0.973
19,0,19-May-2018,1,2,56,Sub19_Trial56_0,0,0,0,17.181782,False,0.898
19,0,19-May-2018,1,2,56,Sub19_Trial56_0,0,1,1,-10.086898,False,0.898
19,0,19-May-2018,1,2,56,Sub19_Trial56_0,0,2,2,13.512863,False,0.898
19,0,19-May-2018,1,2,56,Sub19_Trial56_0,0,3,3,-3.423303,False,0.898
19,0,19-May-2018,1,2,56,Sub19_Trial56_0,0,4,4,87.33382,False,0.898
19,0,19-May-2018,1,2,56,Sub19_Trial56_0,0,5,5,-109.860687,False,0.898
19,0,19-May-2018,1,2,56,Sub19_Trial56_0,0,6,6,-12.94492,False,0.898
19,0,19-May-2018,1,2,56,Sub19_Trial56_1,1,0,0,-33.528947,True,0.898
19,0,19-May-2018,1,2,56,Sub19_Trial56_1,1,1,1,26.178781,True,0.898
19,0,19-May-2018,1,2,56,Sub19_Trial56_1,1,2,2,21.651636,True,0.898
19,0,19-May-2018,1,2,56,Sub19_Trial56_1,1,3,3,-26.52781,True,0.898
19,0,19-May-2018,1,2,56,Sub19_Trial56_1,1,4,4,-13.233707,True,0.898
19,0,19-May-2018,1,2,56,Sub19_Trial56_1,1,5,5,12.622367,True,0.898
19,0,19-May-2018,1,2,56,Sub19_Trial56_1,1,6,6,-79.425783,True,0.898
19,0,19-May-2018,1,2,57,Sub19_Trial57_0,0,0,0,-26.435082,False,0.92
19,0,19-May-2018,1,2,57,Sub19_Trial57_0,0,1,1,-37.305463,False,0.92
19,0,19-May-2018,1,2,57,Sub19_Trial57_0,0,2,2,166.481932,False,0.92
19,0,19-May-2018,1,2,57,Sub19_Trial57_0,0,3,3,139.167224,False,0.92
19,0,19-May-2018,1,2,57,Sub19_Trial57_0,0,4,4,-61.674695,False,0.92
19,0,19-May-2018,1,2,57,Sub19_Trial57_0,0,5,5,-14.732461,False,0.92
19,0,19-May-2018,1,2,57,Sub19_Trial57_0,0,6,6,29.228508,False,0.92
19,0,19-May-2018,1,2,57,Sub19_Trial57_1,1,0,0,123.652108,True,0.92
19,0,19-May-2018,1,2,57,Sub19_Trial57_1,1,1,1,80.034334,True,0.92
19,0,19-May-2018,1,2,57,Sub19_Trial57_1,1,2,2,-67.141916,True,0.92
19,0,19-May-2018,1,2,57,Sub19_Trial57_1,1,3,3,146.028867,True,0.92
19,0,19-May-2018,1,2,57,Sub19_Trial57_1,1,4,4,-19.842802,True,0.92
19,0,19-May-2018,1,2,57,Sub19_Trial57_1,1,5,5,122.432864,True,0.92
19,0,19-May-2018,1,2,57,Sub19_Trial57_1,1,6,6,91.41064,True,0.92
19,0,19-May-2018,1,2,58,Sub19_Trial58_0,0,0,0,157.648309,True,0.985
19,0,19-May-2018,1,2,58,Sub19_Trial58_0,0,1,1,-63.291774,True,0.985
19,0,19-May-2018,1,2,58,Sub19_Trial58_0,0,2,2,-20.628504,True,0.985
19,0,19-May-2018,1,2,58,Sub19_Trial58_0,0,3,3,-3.68756,True,0.985
19,0,19-May-2018,1,2,58,Sub19_Trial58_0,0,4,4,-93.818095,True,0.985
19,0,19-May-2018,1,2,58,Sub19_Trial58_0,0,5,5,195.353518,True,0.985
19,0,19-May-2018,1,2,58,Sub19_Trial58_0,0,6,6,79.659652,True,0.985
19,0,19-May-2018,1,2,58,Sub19_Trial58_1,1,0,0,-148.510629,False,0.985
19,0,19-May-2018,1,2,58,Sub19_Trial58_1,1,1,1,-35.749671,False,0.985
19,0,19-May-2018,1,2,58,Sub19_Trial58_1,1,2,2,1.574877,False,0.985
19,0,19-May-2018,1,2,58,Sub19_Trial58_1,1,3,3,174.300502,False,0.985
19,0,19-May-2018,1,2,58,Sub19_Trial58_1,1,4,4,-81.426183,False,0.985
19,0,19-May-2018,1,2,58,Sub19_Trial58_1,1,5,5,-18.403134,False,0.985
19,0,19-May-2018,1,2,58,Sub19_Trial58_1,1,6,6,88.324953,False,0.985
19,0,19-May-2018,1,2,59,Sub19_Trial59_0,0,0,0,3.800332,False,0.61
19,0,19-May-2018,1,2,59,Sub19_Trial59_0,0,1,1,152.300071,False,0.61
19,0,19-May-2018,1,2,59,Sub19_Trial59_0,0,2,2,41.632941,False,0.61
19,0,19-May-2018,1,2,59,Sub19_Trial59_0,0,3,3,-84.933399,False,0.61
19,0,19-May-2018,1,2,59,Sub19_Trial59_0,0,4,4,24.082821,False,0.61
19,0,19-May-2018,1,2,59,Sub19_Trial59_0,0,5,5,-120.862327,False,0.61
19,0,19-May-2018,1,2,59,Sub19_Trial59_0,0,6,6,-107.732604,False,0.61
19,0,19-May-2018,1,2,59,Sub19_Trial59_1,1,0,0,-9.648108,True,0.61
19,0,19-May-2018,1,2,59,Sub19_Trial59_1,1,1,1,94.086284,True,0.61
19,0,19-May-2018,1,2,59,Sub19_Trial59_1,1,2,2,-34.570872,True,0.61
19,0,19-May-2018,1,2,59,Sub19_Trial59_1,1,3,3,31.469174,True,0.61
19,0,19-May-2018,1,2,59,Sub19_Trial59_1,1,4,4,-120.685943,True,0.61
19,0,19-May-2018,1,2,59,Sub19_Trial59_1,1,5,5,11.322499,True,0.61
19,0,19-May-2018,1,2,59,Sub19_Trial59_1,1,6,6,141.082203,True,0.61
19,0,19-May-2018,1,2,60,Sub19_Trial60_0,0,0,0,37.24905,True,2.003
19,0,19-May-2018,1,2,60,Sub19_Trial60_0,0,1,1,54.549344,True,2.003
19,0,19-May-2018,1,2,60,Sub19_Trial60_0,0,2,2,50.475839,True,2.003
19,0,19-May-2018,1,2,60,Sub19_Trial60_0,0,3,3,3.143917,True,2.003
19,0,19-May-2018,1,2,60,Sub19_Trial60_0,0,4,4,90.131357,True,2.003
19,0,19-May-2018,1,2,60,Sub19_Trial60_0,0,5,5,-83.676784,True,2.003
19,0,19-May-2018,1,2,60,Sub19_Trial60_0,0,6,6,-134.403511,True,2.003
19,0,19-May-2018,1,2,60,Sub19_Trial60_1,1,0,0,120.794268,False,2.003
19,0,19-May-2018,1,2,60,Sub19_Trial60_1,1,1,1,-53.3109,False,2.003
19,0,19-May-2018,1,2,60,Sub19_Trial60_1,1,2,2,-77.979896,False,2.003
19,0,19-May-2018,1,2,60,Sub19_Trial60_1,1,3,3,118.821801,False,2.003
19,0,19-May-2018,1,2,60,Sub19_Trial60_1,1,4,4,-61.194976,False,2.003
19,0,19-May-2018,1,2,60,Sub19_Trial60_1,1,5,5,-53.834432,False,2.003
19,0,19-May-2018,1,2,60,Sub19_Trial60_1,1,6,6,119.316086,False,2.003
19,0,19-May-2018,1,2,61,Sub19_Trial61_0,0,0,0,-26.575538,True,2.565
19,0,19-May-2018,1,2,61,Sub19_Trial61_0,0,1,1,-4.765382,True,2.565
19,0,19-May-2018,1,2,61,Sub19_Trial61_0,0,2,2,31.858386,True,2.565
19,0,19-May-2018,1,2,61,Sub19_Trial61_0,0,3,3,-40.543114,True,2.565
19,0,19-May-2018,1,2,61,Sub19_Trial61_0,0,4,4,103.965601,True,2.565
19,0,19-May-2018,1,2,61,Sub19_Trial61_0,0,5,5,-108.073768,True,2.565
19,0,19-May-2018,1,2,61,Sub19_Trial61_0,0,6,6,0.981194,True,2.565
19,0,19-May-2018,1,2,61,Sub19_Trial61_1,1,0,0,-6.844852,False,2.565
19,0,19-May-2018,1,2,61,Sub19_Trial61_1,1,1,1,-18.267291,False,2.565
19,0,19-May-2018,1,2,61,Sub19_Trial61_1,1,2,2,-14.50827,False,2.565
19,0,19-May-2018,1,2,61,Sub19_Trial61_1,1,3,3,71.722243,False,2.565
19,0,19-May-2018,1,2,61,Sub19_Trial61_1,1,4,4,-127.748305,False,2.565
19,0,19-May-2018,1,2,61,Sub19_Trial61_1,1,5,5,-153.884154,False,2.565
19,0,19-May-2018,1,2,61,Sub19_Trial61_1,1,6,6,61.618398,False,2.565
19,0,19-May-2018,1,2,62,Sub19_Trial62_0,0,0,0,102.806795,False,1.19
19,0,19-May-2018,1,2,62,Sub19_Trial62_0,0,1,1,-7.909243,False,1.19
19,0,19-May-2018,1,2,62,Sub19_Trial62_0,0,2,2,177.795517,False,1.19
19,0,19-May-2018,1,2,62,Sub19_Trial62_0,0,3,3,-44.133085,False,1.19
19,0,19-May-2018,1,2,62,Sub19_Trial62_0,0,4,4,-49.059868,False,1.19
19,0,19-May-2018,1,2,62,Sub19_Trial62_0,0,5,5,-41.554744,False,1.19
19,0,19-May-2018,1,2,62,Sub19_Trial62_0,0,6,6,-40.249585,False,1.19
19,0,19-May-2018,1,2,62,Sub19_Trial62_1,1,0,0,-25.120409,True,1.19
19,0,19-May-2018,1,2,62,Sub19_Trial62_1,1,1,1,-79.36756,True,1.19
19,0,19-May-2018,1,2,62,Sub19_Trial62_1,1,2,2,77.988266,True,1.19
19,0,19-May-2018,1,2,62,Sub19_Trial62_1,1,3,3,101.301079,True,1.19
19,0,19-May-2018,1,2,62,Sub19_Trial62_1,1,4,4,-99.506182,True,1.19
19,0,19-May-2018,1,2,62,Sub19_Trial62_1,1,5,5,-27.439518,True,1.19
19,0,19-May-2018,1,2,62,Sub19_Trial62_1,1,6,6,-31.831758,True,1.19
19,0,19-May-2018,1,2,63,Sub19_Trial63_0,0,0,0,60.638604,False,1.154
19,0,19-May-2018,1,2,63,Sub19_Trial63_0,0,1,1,-24.415452,False,1.154
19,0,19-May-2018,1,2,63,Sub19_Trial63_0,0,2,2,-129.04725,False,1.154
19,0,19-May-2018,1,2,63,Sub19_Trial63_0,0,3,3,10.519141,False,1.154
19,0,19-May-2018,1,2,63,Sub19_Trial63_0,0,4,4,61.067922,False,1.154
19,0,19-May-2018,1,2,63,Sub19_Trial63_0,0,5,5,-29.54913,False,1.154
19,0,19-May-2018,1,2,63,Sub19_Trial63_0,0,6,6,-10.763222,False,1.154
19,0,19-May-2018,1,2,63,Sub19_Trial63_1,1,0,0,2.699432,True,1.154
19,0,19-May-2018,1,2,63,Sub19_Trial63_1,1,1,1,-189.994176,True,1.154
19,0,19-May-2018,1,2,63,Sub19_Trial63_1,1,2,2,76.66605,True,1.154
19,0,19-May-2018,1,2,63,Sub19_Trial63_1,1,3,3,21.842104,True,1.154
19,0,19-May-2018,1,2,63,Sub19_Trial63_1,1,4,4,3.854887,True,1.154
19,0,19-May-2018,1,2,63,Sub19_Trial63_1,1,5,5,97.976439,True,1.154
19,0,19-May-2018,1,2,63,Sub19_Trial63_1,1,6,6,-11.544112,True,1.154
19,0,19-May-2018,1,2,64,Sub19_Trial64_0,0,0,0,-62.673712,False,1.141
19,0,19-May-2018,1,2,64,Sub19_Trial64_0,0,1,1,-95.547204,False,1.141
19,0,19-May-2018,1,2,64,Sub19_Trial64_0,0,2,2,-7.712126,False,1.141
19,0,19-May-2018,1,2,64,Sub19_Trial64_0,0,3,3,-126.962743,False,1.141
19,0,19-May-2018,1,2,64,Sub19_Trial64_0,0,4,4,-115.384804,False,1.141
19,0,19-May-2018,1,2,64,Sub19_Trial64_0,0,5,5,128.487062,False,1.141
19,0,19-May-2018,1,2,64,Sub19_Trial64_0,0,6,6,185.716877,False,1.141
19,0,19-May-2018,1,2,64,Sub19_Trial64_1,1,0,0,12.015263,True,1.141
19,0,19-May-2018,1,2,64,Sub19_Trial64_1,1,1,1,94.000652,True,1.141
19,0,19-May-2018,1,2,64,Sub19_Trial64_1,1,2,2,-59.094896,True,1.141
19,0,19-May-2018,1,2,64,Sub19_Trial64_1,1,3,3,100.599105,True,1.141
19,0,19-May-2018,1,2,64,Sub19_Trial64_1,1,4,4,-1.694744,True,1.141
19,0,19-May-2018,1,2,64,Sub19_Trial64_1,1,5,5,51.32112,True,1.141
19,0,19-May-2018,1,2,64,Sub19_Trial64_1,1,6,6,6.235668,True,1.141
19,0,19-May-2018,1,2,65,Sub19_Trial65_0,0,0,0,154.277068,True,3.355
19,0,19-May-2018,1,2,65,Sub19_Trial65_0,0,1,1,59.522398,True,3.355
19,0,19-May-2018,1,2,65,Sub19_Trial65_0,0,2,2,62.373935,True,3.355
19,0,19-May-2018,1,2,65,Sub19_Trial65_0,0,3,3,120.219103,True,3.355
19,0,19-May-2018,1,2,65,Sub19_Trial65_0,0,4,4,-148.341802,True,3.355
19,0,19-May-2018,1,2,65,Sub19_Trial65_0,0,5,5,94.741886,True,3.355
19,0,19-May-2018,1,2,65,Sub19_Trial65_0,0,6,6,-77.561851,True,3.355
19,0,19-May-2018,1,2,65,Sub19_Trial65_1,1,0,0,16.916105,False,3.355
19,0,19-May-2018,1,2,65,Sub19_Trial65_1,1,1,1,4.970457,False,3.355
19,0,19-May-2018,1,2,65,Sub19_Trial65_1,1,2,2,0.009019,False,3.355
19,0,19-May-2018,1,2,65,Sub19_Trial65_1,1,3,3,-63.498172,False,3.355
19,0,19-May-2018,1,2,65,Sub19_Trial65_1,1,4,4,97.149321,False,3.355
19,0,19-May-2018,1,2,65,Sub19_Trial65_1,1,5,5,-124.731978,False,3.355
19,0,19-May-2018,1,2,65,Sub19_Trial65_1,1,6,6,6.924092,False,3.355
19,0,19-May-2018,1,2,66,Sub19_Trial66_0,0,0,0,3.415253,True,0.516
19,0,19-May-2018,1,2,66,Sub19_Trial66_0,0,1,1,83.7627,True,0.516
19,0,19-May-2018,1,2,66,Sub19_Trial66_0,0,2,2,96.679207,True,0.516
19,0,19-May-2018,1,2,66,Sub19_Trial66_0,0,3,3,38.552393,True,0.516
19,0,19-May-2018,1,2,66,Sub19_Trial66_0,0,4,4,50.83964,True,0.516
19,0,19-May-2018,1,2,66,Sub19_Trial66_0,0,5,5,69.760031,True,0.516
19,0,19-May-2018,1,2,66,Sub19_Trial66_0,0,6,6,-26.735679,True,0.516
19,0,19-May-2018,1,2,66,Sub19_Trial66_1,1,0,0,-57.078108,False,0.516
19,0,19-May-2018,1,2,66,Sub19_Trial66_1,1,1,1,-39.001886,False,0.516
19,0,19-May-2018,1,2,66,Sub19_Trial66_1,1,2,2,-28.040343,False,0.516
19,0,19-May-2018,1,2,66,Sub19_Trial66_1,1,3,3,28.398889,False,0.516
19,0,19-May-2018,1,2,66,Sub19_Trial66_1,1,4,4,6.22773,False,0.516
19,0,19-May-2018,1,2,66,Sub19_Trial66_1,1,5,5,-93.670381,False,0.516
19,0,19-May-2018,1,2,66,Sub19_Trial66_1,1,6,6,-122.756907,False,0.516
19,0,19-May-2018,1,2,67,Sub19_Trial67_0,0,0,0,46.033172,True,1.191
19,0,19-May-2018,1,2,67,Sub19_Trial67_0,0,1,1,-70.428586,True,1.191
19,0,19-May-2018,1,2,67,Sub19_Trial67_0,0,2,2,0.564875,True,1.191
19,0,19-May-2018,1,2,67,Sub19_Trial67_0,0,3,3,25.211849,True,1.191
19,0,19-May-2018,1,2,67,Sub19_Trial67_0,0,4,4,25.21973,True,1.191
19,0,19-May-2018,1,2,67,Sub19_Trial67_0,0,5,5,-46.490748,True,1.191
19,0,19-May-2018,1,2,67,Sub19_Trial67_0,0,6,6,-22.9489,True,1.191
19,0,19-May-2018,1,2,67,Sub19_Trial67_1,1,0,0,14.360204,False,1.191
19,0,19-May-2018,1,2,67,Sub19_Trial67_1,1,1,1,-8.944703,False,1.191
19,0,19-May-2018,1,2,67,Sub19_Trial67_1,1,2,2,98.563778,False,1.191
19,0,19-May-2018,1,2,67,Sub19_Trial67_1,1,3,3,-83.381639,False,1.191
19,0,19-May-2018,1,2,67,Sub19_Trial67_1,1,4,4,90.806708,False,1.191
19,0,19-May-2018,1,2,67,Sub19_Trial67_1,1,5,5,-191.407256,False,1.191
19,0,19-May-2018,1,2,67,Sub19_Trial67_1,1,6,6,40.98131,False,1.191
19,0,19-May-2018,1,2,68,Sub19_Trial68_0,0,0,0,42.882284,True,0.366
19,0,19-May-2018,1,2,68,Sub19_Trial68_0,0,1,1,-44.54294,True,0.366
19,0,19-May-2018,1,2,68,Sub19_Trial68_0,0,2,2,-1.967264,True,0.366
19,0,19-May-2018,1,2,68,Sub19_Trial68_0,0,3,3,39.809642,True,0.366
19,0,19-May-2018,1,2,68,Sub19_Trial68_0,0,4,4,46.085765,True,0.366
19,0,19-May-2018,1,2,68,Sub19_Trial68_0,0,5,5,89.915762,True,0.366
19,0,19-May-2018,1,2,68,Sub19_Trial68_0,0,6,6,35.710022,True,0.366
19,0,19-May-2018,1,2,68,Sub19_Trial68_1,1,0,0,108.967535,False,0.366
19,0,19-May-2018,1,2,68,Sub19_Trial68_1,1,1,1,-36.431354,False,0.366
19,0,19-May-2018,1,2,68,Sub19_Trial68_1,1,2,2,85.455415,False,0.366
19,0,19-May-2018,1,2,68,Sub19_Trial68_1,1,3,3,26.312423,False,0.366
19,0,19-May-2018,1,2,68,Sub19_Trial68_1,1,4,4,-50.114831,False,0.366
19,0,19-May-2018,1,2,68,Sub19_Trial68_1,1,5,5,-15.338964,False,0.366
19,0,19-May-2018,1,2,68,Sub19_Trial68_1,1,6,6,-115.199193,False,0.366
19,0,19-May-2018,1,2,69,Sub19_Trial69_0,0,0,0,-43.774695,True,1.153
19,0,19-May-2018,1,2,69,Sub19_Trial69_0,0,1,1,-31.308373,True,1.153
19,0,19-May-2018,1,2,69,Sub19_Trial69_0,0,2,2,97.316709,True,1.153
19,0,19-May-2018,1,2,69,Sub19_Trial69_0,0,3,3,-66.430329,True,1.153
19,0,19-May-2018,1,2,69,Sub19_Trial69_0,0,4,4,57.095619,True,1.153
19,0,19-May-2018,1,2,69,Sub19_Trial69_0,0,5,5,-53.893493,True,1.153
19,0,19-May-2018,1,2,69,Sub19_Trial69_0,0,6,6,-99.634381,True,1.153
19,0,19-May-2018,1,2,69,Sub19_Trial69_1,1,0,0,0.373734,False,1.153
19,0,19-May-2018,1,2,69,Sub19_Trial69_1,1,1,1,70.870174,False,1.153
19,0,19-May-2018,1,2,69,Sub19_Trial69_1,1,2,2,-132.910428,False,1.153
19,0,19-May-2018,1,2,69,Sub19_Trial69_1,1,3,3,-34.353955,False,1.153
19,0,19-May-2018,1,2,69,Sub19_Trial69_1,1,4,4,5.635094,False,1.153
19,0,19-May-2018,1,2,69,Sub19_Trial69_1,1,5,5,-118.000808,False,1.153
19,0,19-May-2018,1,2,69,Sub19_Trial69_1,1,6,6,-60.637162,False,1.153
19,0,19-May-2018,1,2,70,Sub19_Trial70_0,0,0,0,-59.230691,False,1.107
19,0,19-May-2018,1,2,70,Sub19_Trial70_0,0,1,1,-121.871318,False,1.107
19,0,19-May-2018,1,2,70,Sub19_Trial70_0,0,2,2,-49.563024,False,1.107
19,0,19-May-2018,1,2,70,Sub19_Trial70_0,0,3,3,-69.208771,False,1.107
19,0,19-May-2018,1,2,70,Sub19_Trial70_0,0,4,4,92.769461,False,1.107
19,0,19-May-2018,1,2,70,Sub19_Trial70_0,0,5,5,-26.603446,False,1.107
19,0,19-May-2018,1,2,70,Sub19_Trial70_0,0,6,6,33.928659,False,1.107
19,0,19-May-2018,1,2,70,Sub19_Trial70_1,1,0,0,38.913251,True,1.107
19,0,19-May-2018,1,2,70,Sub19_Trial70_1,1,1,1,51.057553,True,1.107
19,0,19-May-2018,1,2,70,Sub19_Trial70_1,1,2,2,86.374961,True,1.107
19,0,19-May-2018,1,2,70,Sub19_Trial70_1,1,3,3,-16.826676,True,1.107
19,0,19-May-2018,1,2,70,Sub19_Trial70_1,1,4,4,22.176133,True,1.107
19,0,19-May-2018,1,2,70,Sub19_Trial70_1,1,5,5,58.097113,True,1.107
19,0,19-May-2018,1,2,70,Sub19_Trial70_1,1,6,6,101.18355,True,1.107
19,0,19-May-2018,1,2,71,Sub19_Trial71_0,0,0,0,63.179285,True,1.104
19,0,19-May-2018,1,2,71,Sub19_Trial71_0,0,1,1,-2.7191,True,1.104
19,0,19-May-2018,1,2,71,Sub19_Trial71_0,0,2,2,128.56451,True,1.104
19,0,19-May-2018,1,2,71,Sub19_Trial71_0,0,3,3,118.225051,True,1.104
19,0,19-May-2018,1,2,71,Sub19_Trial71_0,0,4,4,42.092509,True,1.104
19,0,19-May-2018,1,2,71,Sub19_Trial71_0,0,5,5,-46.87753,True,1.104
19,0,19-May-2018,1,2,71,Sub19_Trial71_0,0,6,6,101.596322,True,1.104
19,0,19-May-2018,1,2,71,Sub19_Trial71_1,1,0,0,-10.70969,False,1.104
19,0,19-May-2018,1,2,71,Sub19_Trial71_1,1,1,1,-137.571921,False,1.104
19,0,19-May-2018,1,2,71,Sub19_Trial71_1,1,2,2,0.902971,False,1.104
19,0,19-May-2018,1,2,71,Sub19_Trial71_1,1,3,3,35.624462,False,1.104
19,0,19-May-2018,1,2,71,Sub19_Trial71_1,1,4,4,-32.537562,False,1.104
19,0,19-May-2018,1,2,71,Sub19_Trial71_1,1,5,5,-51.54237,False,1.104
19,0,19-May-2018,1,2,71,Sub19_Trial71_1,1,6,6,-59.119142,False,1.104
19,0,19-May-2018,1,2,72,Sub19_Trial72_0,0,0,0,-51.232087,True,0.734
19,0,19-May-2018,1,2,72,Sub19_Trial72_0,0,1,1,-53.013282,True,0.734
19,0,19-May-2018,1,2,72,Sub19_Trial72_0,0,2,2,-91.06352,True,0.734
19,0,19-May-2018,1,2,72,Sub19_Trial72_0,0,3,3,30.348191,True,0.734
19,0,19-May-2018,1,2,72,Sub19_Trial72_0,0,4,4,40.01393,True,0.734
19,0,19-May-2018,1,2,72,Sub19_Trial72_0,0,5,5,64.541091,True,0.734
19,0,19-May-2018,1,2,72,Sub19_Trial72_0,0,6,6,-47.834982,True,0.734
19,0,19-May-2018,1,2,72,Sub19_Trial72_1,1,0,0,-141.125147,False,0.734
19,0,19-May-2018,1,2,72,Sub19_Trial72_1,1,1,1,-38.825884,False,0.734
19,0,19-May-2018,1,2,72,Sub19_Trial72_1,1,2,2,17.470219,False,0.734
19,0,19-May-2018,1,2,72,Sub19_Trial72_1,1,3,3,35.81877,False,0.734
19,0,19-May-2018,1,2,72,Sub19_Trial72_1,1,4,4,-143.668055,False,0.734
19,0,19-May-2018,1,2,72,Sub19_Trial72_1,1,5,5,-60.891527,False,0.734
19,0,19-May-2018,1,2,72,Sub19_Trial72_1,1,6,6,-2.103277,False,0.734
19,0,19-May-2018,1,2,73,Sub19_Trial73_0,0,0,0,-102.311697,False,0.307
19,0,19-May-2018,1,2,73,Sub19_Trial73_0,0,1,1,-58.723469,False,0.307
19,0,19-May-2018,1,2,73,Sub19_Trial73_0,0,2,2,-26.067779,False,0.307
19,0,19-May-2018,1,2,73,Sub19_Trial73_0,0,3,3,-104.601828,False,0.307
19,0,19-May-2018,1,2,73,Sub19_Trial73_0,0,4,4,-42.452331,False,0.307
19,0,19-May-2018,1,2,73,Sub19_Trial73_0,0,5,5,-49.599225,False,0.307
19,0,19-May-2018,1,2,73,Sub19_Trial73_0,0,6,6,38.299285,False,0.307
19,0,19-May-2018,1,2,73,Sub19_Trial73_1,1,0,0,57.035317,True,0.307
19,0,19-May-2018,1,2,73,Sub19_Trial73_1,1,1,1,-99.422085,True,0.307
19,0,19-May-2018,1,2,73,Sub19_Trial73_1,1,2,2,70.095736,True,0.307
19,0,19-May-2018,1,2,73,Sub19_Trial73_1,1,3,3,31.978659,True,0.307
19,0,19-May-2018,1,2,73,Sub19_Trial73_1,1,4,4,130.820715,True,0.307
19,0,19-May-2018,1,2,73,Sub19_Trial73_1,1,5,5,-8.637989,True,0.307
19,0,19-May-2018,1,2,73,Sub19_Trial73_1,1,6,6,110.271502,True,0.307
19,0,19-May-2018,1,2,74,Sub19_Trial74_0,0,0,0,32.852917,False,0.426
19,0,19-May-2018,1,2,74,Sub19_Trial74_0,0,1,1,-41.666556,False,0.426
19,0,19-May-2018,1,2,74,Sub19_Trial74_0,0,2,2,-7.204571,False,0.426
19,0,19-May-2018,1,2,74,Sub19_Trial74_0,0,3,3,-127.633252,False,0.426
19,0,19-May-2018,1,2,74,Sub19_Trial74_0,0,4,4,-100.174383,False,0.426
19,0,19-May-2018,1,2,74,Sub19_Trial74_0,0,5,5,-37.728605,False,0.426
19,0,19-May-2018,1,2,74,Sub19_Trial74_0,0,6,6,-1.335471,False,0.426
19,0,19-May-2018,1,2,74,Sub19_Trial74_1,1,0,0,60.390252,True,0.426
19,0,19-May-2018,1,2,74,Sub19_Trial74_1,1,1,1,-29.881183,True,0.426
19,0,19-May-2018,1,2,74,Sub19_Trial74_1,1,2,2,48.283055,True,0.426
19,0,19-May-2018,1,2,74,Sub19_Trial74_1,1,3,3,36.981574,True,0.426
19,0,19-May-2018,1,2,74,Sub19_Trial74_1,1,4,4,96.577837,True,0.426
19,0,19-May-2018,1,2,74,Sub19_Trial74_1,1,5,5,47.433417,True,0.426
19,0,19-May-2018,1,2,74,Sub19_Trial74_1,1,6,6,63.494119,True,0.426
19,0,19-May-2018,1,2,75,Sub19_Trial75_0,0,0,0,144.418348,False,0.494
19,0,19-May-2018,1,2,75,Sub19_Trial75_0,0,1,1,63.376575,False,0.494
19,0,19-May-2018,1,2,75,Sub19_Trial75_0,0,2,2,-186.035976,False,0.494
19,0,19-May-2018,1,2,75,Sub19_Trial75_0,0,3,3,36.875551,False,0.494
19,0,19-May-2018,1,2,75,Sub19_Trial75_0,0,4,4,-83.857875,False,0.494
19,0,19-May-2018,1,2,75,Sub19_Trial75_0,0,5,5,-29.459498,False,0.494
19,0,19-May-2018,1,2,75,Sub19_Trial75_0,0,6,6,77.554354,False,0.494
19,0,19-May-2018,1,2,75,Sub19_Trial75_1,1,0,0,-30.248733,True,0.494
19,0,19-May-2018,1,2,75,Sub19_Trial75_1,1,1,1,-23.431293,True,0.494
19,0,19-May-2018,1,2,75,Sub19_Trial75_1,1,2,2,-42.899399,True,0.494
19,0,19-May-2018,1,2,75,Sub19_Trial75_1,1,3,3,62.353753,True,0.494
19,0,19-May-2018,1,2,75,Sub19_Trial75_1,1,4,4,-75.914837,True,0.494
19,0,19-May-2018,1,2,75,Sub19_Trial75_1,1,5,5,55.896298,True,0.494
19,0,19-May-2018,1,2,75,Sub19_Trial75_1,1,6,6,101.976974,True,0.494
19,0,19-May-2018,1,2,76,Sub19_Trial76_0,0,0,0,43.032467,True,0.852
19,0,19-May-2018,1,2,76,Sub19_Trial76_0,0,1,1,-76.279746,True,0.852
19,0,19-May-2018,1,2,76,Sub19_Trial76_0,0,2,2,-133.28022,True,0.852
19,0,19-May-2018,1,2,76,Sub19_Trial76_0,0,3,3,-170.796435,True,0.852
19,0,19-May-2018,1,2,76,Sub19_Trial76_0,0,4,4,-25.692769,True,0.852
19,0,19-May-2018,1,2,76,Sub19_Trial76_0,0,5,5,126.341691,True,0.852
19,0,19-May-2018,1,2,76,Sub19_Trial76_0,0,6,6,-162.033266,True,0.852
19,0,19-May-2018,1,2,76,Sub19_Trial76_1,1,0,0,110.438786,False,0.852
19,0,19-May-2018,1,2,76,Sub19_Trial76_1,1,1,1,-93.326382,False,0.852
19,0,19-May-2018,1,2,76,Sub19_Trial76_1,1,2,2,-3.271685,False,0.852
19,0,19-May-2018,1,2,76,Sub19_Trial76_1,1,3,3,-165.672383,False,0.852
19,0,19-May-2018,1,2,76,Sub19_Trial76_1,1,4,4,-11.487811,False,0.852
19,0,19-May-2018,1,2,76,Sub19_Trial76_1,1,5,5,-105.823929,False,0.852
19,0,19-May-2018,1,2,76,Sub19_Trial76_1,1,6,6,-87.745289,False,0.852
19,0,19-May-2018,1,2,77,Sub19_Trial77_0,0,0,0,185.67564,False,0.552
19,0,19-May-2018,1,2,77,Sub19_Trial77_0,0,1,1,-29.543847,False,0.552
19,0,19-May-2018,1,2,77,Sub19_Trial77_0,0,2,2,-92.988176,False,0.552
19,0,19-May-2018,1,2,77,Sub19_Trial77_0,0,3,3,43.543106,False,0.552
19,0,19-May-2018,1,2,77,Sub19_Trial77_0,0,4,4,-27.645834,False,0.552
19,0,19-May-2018,1,2,77,Sub19_Trial77_0,0,5,5,40.390059,False,0.552
19,0,19-May-2018,1,2,77,Sub19_Trial77_0,0,6,6,30.713614,False,0.552
19,0,19-May-2018,1,2,77,Sub19_Trial77_1,1,0,0,-85.697122,True,0.552
19,0,19-May-2018,1,2,77,Sub19_Trial77_1,1,1,1,177.296376,True,0.552
19,0,19-May-2018,1,2,77,Sub19_Trial77_1,1,2,2,-16.449979,True,0.552
19,0,19-May-2018,1,2,77,Sub19_Trial77_1,1,3,3,-36.997501,True,0.552
19,0,19-May-2018,1,2,77,Sub19_Trial77_1,1,4,4,34.051578,True,0.552
19,0,19-May-2018,1,2,77,Sub19_Trial77_1,1,5,5,65.790911,True,0.552
19,0,19-May-2018,1,2,77,Sub19_Trial77_1,1,6,6,21.351515,True,0.552
19,0,19-May-2018,1,2,78,Sub19_Trial78_0,0,0,0,127.044638,True,0.623
19,0,19-May-2018,1,2,78,Sub19_Trial78_0,0,1,1,73.933759,True,0.623
19,0,19-May-2018,1,2,78,Sub19_Trial78_0,0,2,2,93.060791,True,0.623
19,0,19-May-2018,1,2,78,Sub19_Trial78_0,0,3,3,-6.65191,True,0.623
19,0,19-May-2018,1,2,78,Sub19_Trial78_0,0,4,4,75.428019,True,0.623
19,0,19-May-2018,1,2,78,Sub19_Trial78_0,0,5,5,56.286961,True,0.623
19,0,19-May-2018,1,2,78,Sub19_Trial78_0,0,6,6,-85.460641,True,0.623
19,0,19-May-2018,1,2,78,Sub19_Trial78_1,1,0,0,175.974662,False,0.623
19,0,19-May-2018,1,2,78,Sub19_Trial78_1,1,1,1,-27.065441,False,0.623
19,0,19-May-2018,1,2,78,Sub19_Trial78_1,1,2,2,-27.789365,False,0.623
19,0,19-May-2018,1,2,78,Sub19_Trial78_1,1,3,3,93.711771,False,0.623
19,0,19-May-2018,1,2,78,Sub19_Trial78_1,1,4,4,-46.728881,False,0.623
19,0,19-May-2018,1,2,78,Sub19_Trial78_1,1,5,5,123.837503,False,0.623
19,0,19-May-2018,1,2,78,Sub19_Trial78_1,1,6,6,-64.910279,False,0.623
19,0,19-May-2018,1,2,79,Sub19_Trial79_0,0,0,0,197.476511,False,1.763
19,0,19-May-2018,1,2,79,Sub19_Trial79_0,0,1,1,43.971426,False,1.763
19,0,19-May-2018,1,2,79,Sub19_Trial79_0,0,2,2,-29.135739,False,1.763
19,0,19-May-2018,1,2,79,Sub19_Trial79_0,0,3,3,-8.000717,False,1.763
19,0,19-May-2018,1,2,79,Sub19_Trial79_0,0,4,4,179.438883,False,1.763
19,0,19-May-2018,1,2,79,Sub19_Trial79_0,0,5,5,103.587177,False,1.763
19,0,19-May-2018,1,2,79,Sub19_Trial79_0,0,6,6,-132.256346,False,1.763
19,0,19-May-2018,1,2,79,Sub19_Trial79_1,1,0,0,-61.355084,True,1.763
19,0,19-May-2018,1,2,79,Sub19_Trial79_1,1,1,1,-187.907692,True,1.763
19,0,19-May-2018,1,2,79,Sub19_Trial79_1,1,2,2,-129.304387,True,1.763
19,0,19-May-2018,1,2,79,Sub19_Trial79_1,1,3,3,-90.790539,True,1.763
19,0,19-May-2018,1,2,79,Sub19_Trial79_1,1,4,4,76.590766,True,1.763
19,0,19-May-2018,1,2,79,Sub19_Trial79_1,1,5,5,-44.13159,True,1.763
19,0,19-May-2018,1,2,79,Sub19_Trial79_1,1,6,6,190.69687,True,1.763
19,0,19-May-2018,1,2,80,Sub19_Trial80_0,0,0,0,-23.249683,True,1.043
19,0,19-May-2018,1,2,80,Sub19_Trial80_0,0,1,1,-37.307448,True,1.043
19,0,19-May-2018,1,2,80,Sub19_Trial80_0,0,2,2,-22.472491,True,1.043
19,0,19-May-2018,1,2,80,Sub19_Trial80_0,0,3,3,84.92744,True,1.043
19,0,19-May-2018,1,2,80,Sub19_Trial80_0,0,4,4,181.266978,True,1.043
19,0,19-May-2018,1,2,80,Sub19_Trial80_0,0,5,5,-40.805075,True,1.043
19,0,19-May-2018,1,2,80,Sub19_Trial80_0,0,6,6,60.377612,True,1.043
19,0,19-May-2018,1,2,80,Sub19_Trial80_1,1,0,0,-80.078177,False,1.043
19,0,19-May-2018,1,2,80,Sub19_Trial80_1,1,1,1,-81.646912,False,1.043
19,0,19-May-2018,1,2,80,Sub19_Trial80_1,1,2,2,64.305112,False,1.043
19,0,19-May-2018,1,2,80,Sub19_Trial80_1,1,3,3,-143.06881,False,1.043
19,0,19-May-2018,1,2,80,Sub19_Trial80_1,1,4,4,79.586469,False,1.043
19,0,19-May-2018,1,2,80,Sub19_Trial80_1,1,5,5,-13.49611,False,1.043
19,0,19-May-2018,1,2,80,Sub19_Trial80_1,1,6,6,-102.303304,False,1.043
19,0,19-May-2018,1,2,81,Sub19_Trial81_0,0,0,0,-6.794321,True,0.559
19,0,19-May-2018,1,2,81,Sub19_Trial81_0,0,1,1,24.622432,True,0.559
19,0,19-May-2018,1,2,81,Sub19_Trial81_0,0,2,2,81.417266,True,0.559
19,0,19-May-2018,1,2,81,Sub19_Trial81_0,0,3,3,20.432205,True,0.559
19,0,19-May-2018,1,2,81,Sub19_Trial81_0,0,4,4,-130.01018,True,0.559
19,0,19-May-2018,1,2,81,Sub19_Trial81_0,0,5,5,-24.164387,True,0.559
19,0,19-May-2018,1,2,81,Sub19_Trial81_0,0,6,6,173.791762,True,0.559
19,0,19-May-2018,1,2,81,Sub19_Trial81_1,1,0,0,-165.531322,False,0.559
19,0,19-May-2018,1,2,81,Sub19_Trial81_1,1,1,1,-102.724303,False,0.559
19,0,19-May-2018,1,2,81,Sub19_Trial81_1,1,2,2,-12.728038,False,0.559
19,0,19-May-2018,1,2,81,Sub19_Trial81_1,1,3,3,25.865015,False,0.559
19,0,19-May-2018,1,2,81,Sub19_Trial81_1,1,4,4,28.50312,False,0.559
19,0,19-May-2018,1,2,81,Sub19_Trial81_1,1,5,5,-20.784177,False,0.559
19,0,19-May-2018,1,2,81,Sub19_Trial81_1,1,6,6,-72.863968,False,0.559
19,0,19-May-2018,1,2,82,Sub19_Trial82_0,0,0,0,-156.438985,False,0.794
19,0,19-May-2018,1,2,82,Sub19_Trial82_0,0,1,1,67.751196,False,0.794
19,0,19-May-2018,1,2,82,Sub19_Trial82_0,0,2,2,-107.518572,False,0.794
19,0,19-May-2018,1,2,82,Sub19_Trial82_0,0,3,3,44.149424,False,0.794
19,0,19-May-2018,1,2,82,Sub19_Trial82_0,0,4,4,-37.045959,False,0.794
19,0,19-May-2018,1,2,82,Sub19_Trial82_0,0,5,5,-49.663931,False,0.794
19,0,19-May-2018,1,2,82,Sub19_Trial82_0,0,6,6,-118.688515,False,0.794
19,0,19-May-2018,1,2,82,Sub19_Trial82_1,1,0,0,12.640359,True,0.794
19,0,19-May-2018,1,2,82,Sub19_Trial82_1,1,1,1,92.411078,True,0.794
19,0,19-May-2018,1,2,82,Sub19_Trial82_1,1,2,2,-146.74995,True,0.794
19,0,19-May-2018,1,2,82,Sub19_Trial82_1,1,3,3,18.932073,True,0.794
19,0,19-May-2018,1,2,82,Sub19_Trial82_1,1,4,4,87.339203,True,0.794
19,0,19-May-2018,1,2,82,Sub19_Trial82_1,1,5,5,49.939227,True,0.794
19,0,19-May-2018,1,2,82,Sub19_Trial82_1,1,6,6,-64.681499,True,0.794
19,0,19-May-2018,1,2,83,Sub19_Trial83_0,0,0,0,18.533167,True,1.238
19,0,19-May-2018,1,2,83,Sub19_Trial83_0,0,1,1,91.796987,True,1.238
19,0,19-May-2018,1,2,83,Sub19_Trial83_0,0,2,2,-15.034921,True,1.238
19,0,19-May-2018,1,2,83,Sub19_Trial83_0,0,3,3,150.862259,True,1.238
19,0,19-May-2018,1,2,83,Sub19_Trial83_0,0,4,4,33.287768,True,1.238
19,0,19-May-2018,1,2,83,Sub19_Trial83_0,0,5,5,-50.961158,True,1.238
19,0,19-May-2018,1,2,83,Sub19_Trial83_0,0,6,6,-173.830479,True,1.238
19,0,19-May-2018,1,2,83,Sub19_Trial83_1,1,0,0,3.485084,False,1.238
19,0,19-May-2018,1,2,83,Sub19_Trial83_1,1,1,1,96.517767,False,1.238
19,0,19-May-2018,1,2,83,Sub19_Trial83_1,1,2,2,-58.236555,False,1.238
19,0,19-May-2018,1,2,83,Sub19_Trial83_1,1,3,3,-9.533742,False,1.238
19,0,19-May-2018,1,2,83,Sub19_Trial83_1,1,4,4,37.796736,False,1.238
19,0,19-May-2018,1,2,83,Sub19_Trial83_1,1,5,5,-70.458812,False,1.238
19,0,19-May-2018,1,2,83,Sub19_Trial83_1,1,6,6,-143.606112,False,1.238
19,0,19-May-2018,1,2,84,Sub19_Trial84_0,0,0,0,-62.368722,False,0.646
19,0,19-May-2018,1,2,84,Sub19_Trial84_0,0,1,1,-32.050112,False,0.646
19,0,19-May-2018,1,2,84,Sub19_Trial84_0,0,2,2,-162.597322,False,0.646
19,0,19-May-2018,1,2,84,Sub19_Trial84_0,0,3,3,-38.444807,False,0.646
19,0,19-May-2018,1,2,84,Sub19_Trial84_0,0,4,4,-110.967576,False,0.646
19,0,19-May-2018,1,2,84,Sub19_Trial84_0,0,5,5,53.91174,False,0.646
19,0,19-May-2018,1,2,84,Sub19_Trial84_0,0,6,6,64.485668,False,0.646
19,0,19-May-2018,1,2,84,Sub19_Trial84_1,1,0,0,23.128873,True,0.646
19,0,19-May-2018,1,2,84,Sub19_Trial84_1,1,1,1,155.453859,True,0.646
19,0,19-May-2018,1,2,84,Sub19_Trial84_1,1,2,2,-156.206164,True,0.646
19,0,19-May-2018,1,2,84,Sub19_Trial84_1,1,3,3,183.321971,True,0.646
19,0,19-May-2018,1,2,84,Sub19_Trial84_1,1,4,4,145.420627,True,0.646
19,0,19-May-2018,1,2,84,Sub19_Trial84_1,1,5,5,164.842107,True,0.646
19,0,19-May-2018,1,2,84,Sub19_Trial84_1,1,6,6,4.631016,True,0.646
19,0,19-May-2018,1,2,85,Sub19_Trial85_0,0,0,0,26.475709,False,0.962
19,0,19-May-2018,1,2,85,Sub19_Trial85_0,0,1,1,-18.33041,False,0.962
19,0,19-May-2018,1,2,85,Sub19_Trial85_0,0,2,2,3.132737,False,0.962
19,0,19-May-2018,1,2,85,Sub19_Trial85_0,0,3,3,-183.128373,False,0.962
19,0,19-May-2018,1,2,85,Sub19_Trial85_0,0,4,4,-67.240756,False,0.962
19,0,19-May-2018,1,2,85,Sub19_Trial85_0,0,5,5,43.688443,False,0.962
19,0,19-May-2018,1,2,85,Sub19_Trial85_0,0,6,6,29.097303,False,0.962
19,0,19-May-2018,1,2,85,Sub19_Trial85_1,1,0,0,-48.510457,True,0.962
19,0,19-May-2018,1,2,85,Sub19_Trial85_1,1,1,1,-31.207623,True,0.962
19,0,19-May-2018,1,2,85,Sub19_Trial85_1,1,2,2,-13.246398,True,0.962
19,0,19-May-2018,1,2,85,Sub19_Trial85_1,1,3,3,82.273256,True,0.962
19,0,19-May-2018,1,2,85,Sub19_Trial85_1,1,4,4,-45.261785,True,0.962
19,0,19-May-2018,1,2,85,Sub19_Trial85_1,1,5,5,-31.374351,True,0.962
19,0,19-May-2018,1,2,85,Sub19_Trial85_1,1,6,6,109.45493,True,0.962
19,0,19-May-2018,1,2,86,Sub19_Trial86_0,0,0,0,-24.8452,True,0.946
19,0,19-May-2018,1,2,86,Sub19_Trial86_0,0,1,1,34.911439,True,0.946
19,0,19-May-2018,1,2,86,Sub19_Trial86_0,0,2,2,18.434386,True,0.946
19,0,19-May-2018,1,2,86,Sub19_Trial86_0,0,3,3,-75.454475,True,0.946
19,0,19-May-2018,1,2,86,Sub19_Trial86_0,0,4,4,-102.344057,True,0.946
19,0,19-May-2018,1,2,86,Sub19_Trial86_0,0,5,5,-70.068443,True,0.946
19,0,19-May-2018,1,2,86,Sub19_Trial86_0,0,6,6,-43.008342,True,0.946
19,0,19-May-2018,1,2,86,Sub19_Trial86_1,1,0,0,51.453865,False,0.946
19,0,19-May-2018,1,2,86,Sub19_Trial86_1,1,1,1,51.957507,False,0.946
19,0,19-May-2018,1,2,86,Sub19_Trial86_1,1,2,2,-114.737781,False,0.946
19,0,19-May-2018,1,2,86,Sub19_Trial86_1,1,3,3,-162.628972,False,0.946
19,0,19-May-2018,1,2,86,Sub19_Trial86_1,1,4,4,89.257566,False,0.946
19,0,19-May-2018,1,2,86,Sub19_Trial86_1,1,5,5,-95.749371,False,0.946
19,0,19-May-2018,1,2,86,Sub19_Trial86_1,1,6,6,127.069919,False,0.946
19,0,19-May-2018,1,2,87,Sub19_Trial87_0,0,0,0,2.090585,True,2.062
19,0,19-May-2018,1,2,87,Sub19_Trial87_0,0,1,1,-27.33834,True,2.062
19,0,19-May-2018,1,2,87,Sub19_Trial87_0,0,2,2,89.873927,True,2.062
19,0,19-May-2018,1,2,87,Sub19_Trial87_0,0,3,3,-46.176778,True,2.062
19,0,19-May-2018,1,2,87,Sub19_Trial87_0,0,4,4,-110.765471,True,2.062
19,0,19-May-2018,1,2,87,Sub19_Trial87_0,0,5,5,75.836901,True,2.062
19,0,19-May-2018,1,2,87,Sub19_Trial87_0,0,6,6,79.896742,True,2.062
19,0,19-May-2018,1,2,87,Sub19_Trial87_1,1,0,0,-38.106567,False,2.062
19,0,19-May-2018,1,2,87,Sub19_Trial87_1,1,1,1,31.658531,False,2.062
19,0,19-May-2018,1,2,87,Sub19_Trial87_1,1,2,2,-38.643879,False,2.062
19,0,19-May-2018,1,2,87,Sub19_Trial87_1,1,3,3,-80.405237,False,2.062
19,0,19-May-2018,1,2,87,Sub19_Trial87_1,1,4,4,-1.338893,False,2.062
19,0,19-May-2018,1,2,87,Sub19_Trial87_1,1,5,5,-49.493608,False,2.062
19,0,19-May-2018,1,2,87,Sub19_Trial87_1,1,6,6,-10.115674,False,2.062
19,0,19-May-2018,1,2,88,Sub19_Trial88_0,0,0,0,-127.397035,True,0.689
19,0,19-May-2018,1,2,88,Sub19_Trial88_0,0,1,1,52.375288,True,0.689
19,0,19-May-2018,1,2,88,Sub19_Trial88_0,0,2,2,-149.546924,True,0.689
19,0,19-May-2018,1,2,88,Sub19_Trial88_0,0,3,3,-57.493863,True,0.689
19,0,19-May-2018,1,2,88,Sub19_Trial88_0,0,4,4,162.919459,True,0.689
19,0,19-May-2018,1,2,88,Sub19_Trial88_0,0,5,5,62.26948,True,0.689
19,0,19-May-2018,1,2,88,Sub19_Trial88_0,0,6,6,-9.870567,True,0.689
19,0,19-May-2018,1,2,88,Sub19_Trial88_1,1,0,0,54.535077,False,0.689
19,0,19-May-2018,1,2,88,Sub19_Trial88_1,1,1,1,-146.203489,False,0.689
19,0,19-May-2018,1,2,88,Sub19_Trial88_1,1,2,2,-107.824614,False,0.689
19,0,19-May-2018,1,2,88,Sub19_Trial88_1,1,3,3,-97.475843,False,0.689
19,0,19-May-2018,1,2,88,Sub19_Trial88_1,1,4,4,-123.25131,False,0.689
19,0,19-May-2018,1,2,88,Sub19_Trial88_1,1,5,5,56.412096,False,0.689
19,0,19-May-2018,1,2,88,Sub19_Trial88_1,1,6,6,-153.260421,False,0.689
19,0,19-May-2018,1,2,89,Sub19_Trial89_0,0,0,0,-9.219955,False,0.559
19,0,19-May-2018,1,2,89,Sub19_Trial89_0,0,1,1,-79.312743,False,0.559
19,0,19-May-2018,1,2,89,Sub19_Trial89_0,0,2,2,34.435652,False,0.559
19,0,19-May-2018,1,2,89,Sub19_Trial89_0,0,3,3,-65.916051,False,0.559
19,0,19-May-2018,1,2,89,Sub19_Trial89_0,0,4,4,-53.813381,False,0.559
19,0,19-May-2018,1,2,89,Sub19_Trial89_0,0,5,5,-27.389547,False,0.559
19,0,19-May-2018,1,2,89,Sub19_Trial89_0,0,6,6,20.67254,False,0.559
19,0,19-May-2018,1,2,89,Sub19_Trial89_1,1,0,0,26.086427,True,0.559
19,0,19-May-2018,1,2,89,Sub19_Trial89_1,1,1,1,132.777841,True,0.559
19,0,19-May-2018,1,2,89,Sub19_Trial89_1,1,2,2,9.808543,True,0.559
19,0,19-May-2018,1,2,89,Sub19_Trial89_1,1,3,3,99.116662,True,0.559
19,0,19-May-2018,1,2,89,Sub19_Trial89_1,1,4,4,-13.028506,True,0.559
19,0,19-May-2018,1,2,89,Sub19_Trial89_1,1,5,5,52.601395,True,0.559
19,0,19-May-2018,1,2,89,Sub19_Trial89_1,1,6,6,-184.258069,True,0.559
19,0,19-May-2018,1,2,90,Sub19_Trial90_0,0,0,0,-4.423246,True,1.205
19,0,19-May-2018,1,2,90,Sub19_Trial90_0,0,1,1,-28.250933,True,1.205
19,0,19-May-2018,1,2,90,Sub19_Trial90_0,0,2,2,-75.657822,True,1.205
19,0,19-May-2018,1,2,90,Sub19_Trial90_0,0,3,3,28.806443,True,1.205
19,0,19-May-2018,1,2,90,Sub19_Trial90_0,0,4,4,86.184931,True,1.205
19,0,19-May-2018,1,2,90,Sub19_Trial90_0,0,5,5,65.812851,True,1.205
19,0,19-May-2018,1,2,90,Sub19_Trial90_0,0,6,6,-127.234489,True,1.205
19,0,19-May-2018,1,2,90,Sub19_Trial90_1,1,0,0,156.050198,False,1.205
19,0,19-May-2018,1,2,90,Sub19_Trial90_1,1,1,1,27.387064,False,1.205
19,0,19-May-2018,1,2,90,Sub19_Trial90_1,1,2,2,30.603177,False,1.205
19,0,19-May-2018,1,2,90,Sub19_Trial90_1,1,3,3,-7.34098,False,1.205
19,0,19-May-2018,1,2,90,Sub19_Trial90_1,1,4,4,0.801445,False,1.205
19,0,19-May-2018,1,2,90,Sub19_Trial90_1,1,5,5,7.19272,False,1.205
19,0,19-May-2018,1,2,90,Sub19_Trial90_1,1,6,6,23.727028,False,1.205
19,0,19-May-2018,1,2,91,Sub19_Trial91_0,0,0,0,76.07566,False,0.639
19,0,19-May-2018,1,2,91,Sub19_Trial91_0,0,1,1,116.975685,False,0.639
19,0,19-May-2018,1,2,91,Sub19_Trial91_0,0,2,2,-10.838212,False,0.639
19,0,19-May-2018,1,2,91,Sub19_Trial91_0,0,3,3,-20.781994,False,0.639
19,0,19-May-2018,1,2,91,Sub19_Trial91_0,0,4,4,55.398523,False,0.639
19,0,19-May-2018,1,2,91,Sub19_Trial91_0,0,5,5,-134.289172,False,0.639
19,0,19-May-2018,1,2,91,Sub19_Trial91_0,0,6,6,33.859571,False,0.639
19,0,19-May-2018,1,2,91,Sub19_Trial91_1,1,0,0,-122.93544,True,0.639
19,0,19-May-2018,1,2,91,Sub19_Trial91_1,1,1,1,92.729864,True,0.639
19,0,19-May-2018,1,2,91,Sub19_Trial91_1,1,2,2,-10.703723,True,0.639
19,0,19-May-2018,1,2,91,Sub19_Trial91_1,1,3,3,-32.123598,True,0.639
19,0,19-May-2018,1,2,91,Sub19_Trial91_1,1,4,4,-31.556735,True,0.639
19,0,19-May-2018,1,2,91,Sub19_Trial91_1,1,5,5,114.707079,True,0.639
19,0,19-May-2018,1,2,91,Sub19_Trial91_1,1,6,6,-54.571186,True,0.639
19,0,19-May-2018,1,2,92,Sub19_Trial92_0,0,0,0,54.031906,False,0.687
19,0,19-May-2018,1,2,92,Sub19_Trial92_0,0,1,1,-131.643719,False,0.687
19,0,19-May-2018,1,2,92,Sub19_Trial92_0,0,2,2,106.144604,False,0.687
19,0,19-May-2018,1,2,92,Sub19_Trial92_0,0,3,3,158.039424,False,0.687
19,0,19-May-2018,1,2,92,Sub19_Trial92_0,0,4,4,-91.963751,False,0.687
19,0,19-May-2018,1,2,92,Sub19_Trial92_0,0,5,5,-6.004778,False,0.687
19,0,19-May-2018,1,2,92,Sub19_Trial92_0,0,6,6,13.572979,False,0.687
19,0,19-May-2018,1,2,92,Sub19_Trial92_1,1,0,0,-34.623304,True,0.687
19,0,19-May-2018,1,2,92,Sub19_Trial92_1,1,1,1,100.543275,True,0.687
19,0,19-May-2018,1,2,92,Sub19_Trial92_1,1,2,2,86.284361,True,0.687
19,0,19-May-2018,1,2,92,Sub19_Trial92_1,1,3,3,-142.053477,True,0.687
19,0,19-May-2018,1,2,92,Sub19_Trial92_1,1,4,4,73.269334,True,0.687
19,0,19-May-2018,1,2,92,Sub19_Trial92_1,1,5,5,55.239943,True,0.687
19,0,19-May-2018,1,2,92,Sub19_Trial92_1,1,6,6,93.762413,True,0.687
19,0,19-May-2018,1,2,93,Sub19_Trial93_0,0,0,0,107.922861,False,0.288
19,0,19-May-2018,1,2,93,Sub19_Trial93_0,0,1,1,-84.102731,False,0.288
19,0,19-May-2018,1,2,93,Sub19_Trial93_0,0,2,2,46.369812,False,0.288
19,0,19-May-2018,1,2,93,Sub19_Trial93_0,0,3,3,-15.350175,False,0.288
19,0,19-May-2018,1,2,93,Sub19_Trial93_0,0,4,4,-128.179383,False,0.288
19,0,19-May-2018,1,2,93,Sub19_Trial93_0,0,5,5,63.291874,False,0.288
19,0,19-May-2018,1,2,93,Sub19_Trial93_0,0,6,6,70.910216,False,0.288
19,0,19-May-2018,1,2,93,Sub19_Trial93_1,1,0,0,115.007196,True,0.288
19,0,19-May-2018,1,2,93,Sub19_Trial93_1,1,1,1,14.457898,True,0.288
19,0,19-May-2018,1,2,93,Sub19_Trial93_1,1,2,2,48.392509,True,0.288
19,0,19-May-2018,1,2,93,Sub19_Trial93_1,1,3,3,118.605214,True,0.288
19,0,19-May-2018,1,2,93,Sub19_Trial93_1,1,4,4,59.55554,True,0.288
19,0,19-May-2018,1,2,93,Sub19_Trial93_1,1,5,5,-0.351723,True,0.288
19,0,19-May-2018,1,2,93,Sub19_Trial93_1,1,6,6,31.952761,True,0.288
19,0,19-May-2018,1,2,94,Sub19_Trial94_0,0,0,0,13.85033,False,0.488
19,0,19-May-2018,1,2,94,Sub19_Trial94_0,0,1,1,-2.600568,False,0.488
19,0,19-May-2018,1,2,94,Sub19_Trial94_0,0,2,2,-23.036397,False,0.488
19,0,19-May-2018,1,2,94,Sub19_Trial94_0,0,3,3,-65.431826,False,0.488
19,0,19-May-2018,1,2,94,Sub19_Trial94_0,0,4,4,27.993098,False,0.488
19,0,19-May-2018,1,2,94,Sub19_Trial94_0,0,5,5,-53.047114,False,0.488
19,0,19-May-2018,1,2,94,Sub19_Trial94_0,0,6,6,-40.805613,False,0.488
19,0,19-May-2018,1,2,94,Sub19_Trial94_1,1,0,0,49.801902,True,0.488
19,0,19-May-2018,1,2,94,Sub19_Trial94_1,1,1,1,72.925585,True,0.488
19,0,19-May-2018,1,2,94,Sub19_Trial94_1,1,2,2,110.352184,True,0.488
19,0,19-May-2018,1,2,94,Sub19_Trial94_1,1,3,3,167.27022,True,0.488
19,0,19-May-2018,1,2,94,Sub19_Trial94_1,1,4,4,-71.528605,True,0.488
19,0,19-May-2018,1,2,94,Sub19_Trial94_1,1,5,5,24.020977,True,0.488
19,0,19-May-2018,1,2,94,Sub19_Trial94_1,1,6,6,58.105889,True,0.488
19,0,19-May-2018,1,2,95,Sub19_Trial95_0,0,0,0,-156.694642,False,0.326
19,0,19-May-2018,1,2,95,Sub19_Trial95_0,0,1,1,-137.261094,False,0.326
19,0,19-May-2018,1,2,95,Sub19_Trial95_0,0,2,2,-74.501637,False,0.326
19,0,19-May-2018,1,2,95,Sub19_Trial95_0,0,3,3,-104.517082,False,0.326
19,0,19-May-2018,1,2,95,Sub19_Trial95_0,0,4,4,-99.795436,False,0.326
19,0,19-May-2018,1,2,95,Sub19_Trial95_0,0,5,5,19.981558,False,0.326
19,0,19-May-2018,1,2,95,Sub19_Trial95_0,0,6,6,36.357802,False,0.326
19,0,19-May-2018,1,2,95,Sub19_Trial95_1,1,0,0,-136.559752,True,0.326
19,0,19-May-2018,1,2,95,Sub19_Trial95_1,1,1,1,56.449103,True,0.326
19,0,19-May-2018,1,2,95,Sub19_Trial95_1,1,2,2,23.845752,True,0.326
19,0,19-May-2018,1,2,95,Sub19_Trial95_1,1,3,3,-13.158085,True,0.326
19,0,19-May-2018,1,2,95,Sub19_Trial95_1,1,4,4,-71.277106,True,0.326
19,0,19-May-2018,1,2,95,Sub19_Trial95_1,1,5,5,142.509775,True,0.326
19,0,19-May-2018,1,2,95,Sub19_Trial95_1,1,6,6,16.216135,True,0.326
19,0,19-May-2018,1,2,96,Sub19_Trial96_0,0,0,0,105.983144,True,0.715
19,0,19-May-2018,1,2,96,Sub19_Trial96_0,0,1,1,-38.092786,True,0.715
19,0,19-May-2018,1,2,96,Sub19_Trial96_0,0,2,2,-38.228267,True,0.715
19,0,19-May-2018,1,2,96,Sub19_Trial96_0,0,3,3,-22.196035,True,0.715
19,0,19-May-2018,1,2,96,Sub19_Trial96_0,0,4,4,146.822894,True,0.715
19,0,19-May-2018,1,2,96,Sub19_Trial96_0,0,5,5,-31.378032,True,0.715
19,0,19-May-2018,1,2,96,Sub19_Trial96_0,0,6,6,-0.162116,True,0.715
19,0,19-May-2018,1,2,96,Sub19_Trial96_1,1,0,0,26.810776,False,0.715
19,0,19-May-2018,1,2,96,Sub19_Trial96_1,1,1,1,87.755571,False,0.715
19,0,19-May-2018,1,2,96,Sub19_Trial96_1,1,2,2,-64.705219,False,0.715
19,0,19-May-2018,1,2,96,Sub19_Trial96_1,1,3,3,-128.314717,False,0.715
19,0,19-May-2018,1,2,96,Sub19_Trial96_1,1,4,4,-53.961961,False,0.715
19,0,19-May-2018,1,2,96,Sub19_Trial96_1,1,5,5,61.086781,False,0.715
19,0,19-May-2018,1,2,96,Sub19_Trial96_1,1,6,6,-3.134462,False,0.715
19,0,19-May-2018,1,2,97,Sub19_Trial97_0,0,0,0,-129.31759,True,0.798
19,0,19-May-2018,1,2,97,Sub19_Trial97_0,0,1,1,63.430405,True,0.798
19,0,19-May-2018,1,2,97,Sub19_Trial97_0,0,2,2,38.707554,True,0.798
19,0,19-May-2018,1,2,97,Sub19_Trial97_0,0,3,3,-52.276325,True,0.798
19,0,19-May-2018,1,2,97,Sub19_Trial97_0,0,4,4,69.79607,True,0.798
19,0,19-May-2018,1,2,97,Sub19_Trial97_0,0,5,5,109.619032,True,0.798
19,0,19-May-2018,1,2,97,Sub19_Trial97_0,0,6,6,-40.978889,True,0.798
19,0,19-May-2018,1,2,97,Sub19_Trial97_1,1,0,0,42.061821,False,0.798
19,0,19-May-2018,1,2,97,Sub19_Trial97_1,1,1,1,24.547585,False,0.798
19,0,19-May-2018,1,2,97,Sub19_Trial97_1,1,2,2,89.752858,False,0.798
19,0,19-May-2018,1,2,97,Sub19_Trial97_1,1,3,3,-80.739045,False,0.798
19,0,19-May-2018,1,2,97,Sub19_Trial97_1,1,4,4,-47.65145,False,0.798
19,0,19-May-2018,1,2,97,Sub19_Trial97_1,1,5,5,126.396622,False,0.798
19,0,19-May-2018,1,2,97,Sub19_Trial97_1,1,6,6,64.601038,False,0.798
19,0,19-May-2018,1,2,98,Sub19_Trial98_0,0,0,0,55.823691,True,0.519
19,0,19-May-2018,1,2,98,Sub19_Trial98_0,0,1,1,-2.456863,True,0.519
19,0,19-May-2018,1,2,98,Sub19_Trial98_0,0,2,2,-117.087587,True,0.519
19,0,19-May-2018,1,2,98,Sub19_Trial98_0,0,3,3,58.665777,True,0.519
19,0,19-May-2018,1,2,98,Sub19_Trial98_0,0,4,4,-6.304925,True,0.519
19,0,19-May-2018,1,2,98,Sub19_Trial98_0,0,5,5,6.389716,True,0.519
19,0,19-May-2018,1,2,98,Sub19_Trial98_0,0,6,6,-30.701088,True,0.519
19,0,19-May-2018,1,2,98,Sub19_Trial98_1,1,0,0,63.567156,False,0.519
19,0,19-May-2018,1,2,98,Sub19_Trial98_1,1,1,1,-18.053081,False,0.519
19,0,19-May-2018,1,2,98,Sub19_Trial98_1,1,2,2,59.725259,False,0.519
19,0,19-May-2018,1,2,98,Sub19_Trial98_1,1,3,3,78.039501,False,0.519
19,0,19-May-2018,1,2,98,Sub19_Trial98_1,1,4,4,-24.449631,False,0.519
19,0,19-May-2018,1,2,98,Sub19_Trial98_1,1,5,5,-159.571941,False,0.519
19,0,19-May-2018,1,2,98,Sub19_Trial98_1,1,6,6,-80.290902,False,0.519
19,0,19-May-2018,1,2,99,Sub19_Trial99_0,0,0,0,31.087659,False,0.596
19,0,19-May-2018,1,2,99,Sub19_Trial99_0,0,1,1,-107.544871,False,0.596
19,0,19-May-2018,1,2,99,Sub19_Trial99_0,0,2,2,-99.463481,False,0.596
19,0,19-May-2018,1,2,99,Sub19_Trial99_0,0,3,3,-88.116459,False,0.596
19,0,19-May-2018,1,2,99,Sub19_Trial99_0,0,4,4,29.056736,False,0.596
19,0,19-May-2018,1,2,99,Sub19_Trial99_0,0,5,5,-92.132117,False,0.596
19,0,19-May-2018,1,2,99,Sub19_Trial99_0,0,6,6,138.532515,False,0.596
19,0,19-May-2018,1,2,99,Sub19_Trial99_1,1,0,0,195.509925,True,0.596
19,0,19-May-2018,1,2,99,Sub19_Trial99_1,1,1,1,12.111062,True,0.596
19,0,19-May-2018,1,2,99,Sub19_Trial99_1,1,2,2,169.915263,True,0.596
19,0,19-May-2018,1,2,99,Sub19_Trial99_1,1,3,3,-15.058524,True,0.596
19,0,19-May-2018,1,2,99,Sub19_Trial99_1,1,4,4,135.44725,True,0.596
19,0,19-May-2018,1,2,99,Sub19_Trial99_1,1,5,5,62.956368,True,0.596
19,0,19-May-2018,1,2,99,Sub19_Trial99_1,1,6,6,14.980618,True,0.596
19,0,19-May-2018,1,2,100,Sub19_Trial100_0,0,0,0,-74.075415,True,0.938
19,0,19-May-2018,1,2,100,Sub19_Trial100_0,0,1,1,-8.391104,True,0.938
19,0,19-May-2018,1,2,100,Sub19_Trial100_0,0,2,2,23.340711,True,0.938
19,0,19-May-2018,1,2,100,Sub19_Trial100_0,0,3,3,-65.364096,True,0.938
19,0,19-May-2018,1,2,100,Sub19_Trial100_0,0,4,4,160.328504,True,0.938
19,0,19-May-2018,1,2,100,Sub19_Trial100_0,0,5,5,-72.050465,True,0.938
19,0,19-May-2018,1,2,100,Sub19_Trial100_0,0,6,6,-24.270934,True,0.938
19,0,19-May-2018,1,2,100,Sub19_Trial100_1,1,0,0,-70.348485,False,0.938
19,0,19-May-2018,1,2,100,Sub19_Trial100_1,1,1,1,-50.112741,False,0.938
19,0,19-May-2018,1,2,100,Sub19_Trial100_1,1,2,2,-130.622884,False,0.938
19,0,19-May-2018,1,2,100,Sub19_Trial100_1,1,3,3,-101.639352,False,0.938
19,0,19-May-2018,1,2,100,Sub19_Trial100_1,1,4,4,-52.197129,False,0.938
19,0,19-May-2018,1,2,100,Sub19_Trial100_1,1,5,5,51.865968,False,0.938
19,0,19-May-2018,1,2,100,Sub19_Trial100_1,1,6,6,95.847193,False,0.938
19,0,19-May-2018,1,3,101,Sub19_Trial101_0,0,0,0,-50.51463,False,0.647
19,0,19-May-2018,1,3,101,Sub19_Trial101_0,0,1,1,103.042709,False,0.647
19,0,19-May-2018,1,3,101,Sub19_Trial101_0,0,2,2,128.673641,False,0.647
19,0,19-May-2018,1,3,101,Sub19_Trial101_0,0,3,3,63.608952,False,0.647
19,0,19-May-2018,1,3,101,Sub19_Trial101_0,0,4,4,99.033629,False,0.647
19,0,19-May-2018,1,3,101,Sub19_Trial101_0,0,5,5,21.670084,False,0.647
19,0,19-May-2018,1,3,101,Sub19_Trial101_0,0,6,6,-58.625148,False,0.647
19,0,19-May-2018,1,3,101,Sub19_Trial101_1,1,0,0,-100.25163,True,0.647
19,0,19-May-2018,1,3,101,Sub19_Trial101_1,1,1,1,-54.232064,True,0.647
19,0,19-May-2018,1,3,101,Sub19_Trial101_1,1,2,2,19.070018,True,0.647
19,0,19-May-2018,1,3,101,Sub19_Trial101_1,1,3,3,50.252689,True,0.647
19,0,19-May-2018,1,3,101,Sub19_Trial101_1,1,4,4,190.602004,True,0.647
19,0,19-May-2018,1,3,101,Sub19_Trial101_1,1,5,5,-16.503405,True,0.647
19,0,19-May-2018,1,3,101,Sub19_Trial101_1,1,6,6,-27.753389,True,0.647
19,0,19-May-2018,1,3,102,Sub19_Trial102_0,0,0,0,-167.544644,False,0.564
19,0,19-May-2018,1,3,102,Sub19_Trial102_0,0,1,1,66.01418,False,0.564
19,0,19-May-2018,1,3,102,Sub19_Trial102_0,0,2,2,113.128004,False,0.564
19,0,19-May-2018,1,3,102,Sub19_Trial102_0,0,3,3,-73.945387,False,0.564
19,0,19-May-2018,1,3,102,Sub19_Trial102_0,0,4,4,61.43369,False,0.564
19,0,19-May-2018,1,3,102,Sub19_Trial102_0,0,5,5,-14.095447,False,0.564
19,0,19-May-2018,1,3,102,Sub19_Trial102_0,0,6,6,-126.808054,False,0.564
19,0,19-May-2018,1,3,102,Sub19_Trial102_1,1,0,0,-171.174875,True,0.564
19,0,19-May-2018,1,3,102,Sub19_Trial102_1,1,1,1,23.197049,True,0.564
19,0,19-May-2018,1,3,102,Sub19_Trial102_1,1,2,2,194.319106,True,0.564
19,0,19-May-2018,1,3,102,Sub19_Trial102_1,1,3,3,192.785457,True,0.564
19,0,19-May-2018,1,3,102,Sub19_Trial102_1,1,4,4,10.955371,True,0.564
19,0,19-May-2018,1,3,102,Sub19_Trial102_1,1,5,5,-0.998901,True,0.564
19,0,19-May-2018,1,3,102,Sub19_Trial102_1,1,6,6,42.240673,True,0.564
19,0,19-May-2018,1,3,103,Sub19_Trial103_0,0,0,0,-41.302981,True,1.468
19,0,19-May-2018,1,3,103,Sub19_Trial103_0,0,1,1,4.314762,True,1.468
19,0,19-May-2018,1,3,103,Sub19_Trial103_0,0,2,2,-80.511692,True,1.468
19,0,19-May-2018,1,3,103,Sub19_Trial103_0,0,3,3,45.572436,True,1.468
19,0,19-May-2018,1,3,103,Sub19_Trial103_0,0,4,4,-144.222623,True,1.468
19,0,19-May-2018,1,3,103,Sub19_Trial103_0,0,5,5,-46.712179,True,1.468
19,0,19-May-2018,1,3,103,Sub19_Trial103_0,0,6,6,121.199847,True,1.468
19,0,19-May-2018,1,3,103,Sub19_Trial103_1,1,0,0,-100.298247,False,1.468
19,0,19-May-2018,1,3,103,Sub19_Trial103_1,1,1,1,-136.081888,False,1.468
19,0,19-May-2018,1,3,103,Sub19_Trial103_1,1,2,2,94.577242,False,1.468
19,0,19-May-2018,1,3,103,Sub19_Trial103_1,1,3,3,-27.894804,False,1.468
19,0,19-May-2018,1,3,103,Sub19_Trial103_1,1,4,4,-94.651312,False,1.468
19,0,19-May-2018,1,3,103,Sub19_Trial103_1,1,5,5,-133.054252,False,1.468
19,0,19-May-2018,1,3,103,Sub19_Trial103_1,1,6,6,-50.618779,False,1.468
19,0,19-May-2018,1,3,104,Sub19_Trial104_0,0,0,0,97.142943,True,0.744
19,0,19-May-2018,1,3,104,Sub19_Trial104_0,0,1,1,66.419136,True,0.744
19,0,19-May-2018,1,3,104,Sub19_Trial104_0,0,2,2,29.808463,True,0.744
19,0,19-May-2018,1,3,104,Sub19_Trial104_0,0,3,3,24.499313,True,0.744
19,0,19-May-2018,1,3,104,Sub19_Trial104_0,0,4,4,-114.763632,True,0.744
19,0,19-May-2018,1,3,104,Sub19_Trial104_0,0,5,5,54.551956,True,0.744
19,0,19-May-2018,1,3,104,Sub19_Trial104_0,0,6,6,147.18504,True,0.744
19,0,19-May-2018,1,3,104,Sub19_Trial104_1,1,0,0,61.479728,False,0.744
19,0,19-May-2018,1,3,104,Sub19_Trial104_1,1,1,1,189.113431,False,0.744
19,0,19-May-2018,1,3,104,Sub19_Trial104_1,1,2,2,-57.074808,False,0.744
19,0,19-May-2018,1,3,104,Sub19_Trial104_1,1,3,3,-25.853284,False,0.744
19,0,19-May-2018,1,3,104,Sub19_Trial104_1,1,4,4,118.580522,False,0.744
19,0,19-May-2018,1,3,104,Sub19_Trial104_1,1,5,5,71.077819,False,0.744
19,0,19-May-2018,1,3,104,Sub19_Trial104_1,1,6,6,-4.109505,False,0.744
19,0,19-May-2018,1,3,105,Sub19_Trial105_0,0,0,0,-44.020636,True,1.073
19,0,19-May-2018,1,3,105,Sub19_Trial105_0,0,1,1,15.719966,True,1.073
19,0,19-May-2018,1,3,105,Sub19_Trial105_0,0,2,2,117.396431,True,1.073
19,0,19-May-2018,1,3,105,Sub19_Trial105_0,0,3,3,-39.585615,True,1.073
19,0,19-May-2018,1,3,105,Sub19_Trial105_0,0,4,4,75.988764,True,1.073
19,0,19-May-2018,1,3,105,Sub19_Trial105_0,0,5,5,3.389472,True,1.073
19,0,19-May-2018,1,3,105,Sub19_Trial105_0,0,6,6,-52.358493,True,1.073
19,0,19-May-2018,1,3,105,Sub19_Trial105_1,1,0,0,-134.193719,False,1.073
19,0,19-May-2018,1,3,105,Sub19_Trial105_1,1,1,1,-4.965906,False,1.073
19,0,19-May-2018,1,3,105,Sub19_Trial105_1,1,2,2,-85.780841,False,1.073
19,0,19-May-2018,1,3,105,Sub19_Trial105_1,1,3,3,34.35475,False,1.073
19,0,19-May-2018,1,3,105,Sub19_Trial105_1,1,4,4,-98.539711,False,1.073
19,0,19-May-2018,1,3,105,Sub19_Trial105_1,1,5,5,-14.687879,False,1.073
19,0,19-May-2018,1,3,105,Sub19_Trial105_1,1,6,6,44.682664,False,1.073
