subj,patient,date,session,part,trial,stim,stim_order,segment,segment_time,pitch,response,rt
14,0,13-May-2018,1,1,1,Sub14_Trial1_0,0,0,0,-66.571126,True,2.434
14,0,13-May-2018,1,1,1,Sub14_Trial1_0,0,1,1,-19.892326,True,2.434
14,0,13-May-2018,1,1,1,Sub14_Trial1_0,0,2,2,-44.87322,True,2.434
14,0,13-May-2018,1,1,1,Sub14_Trial1_0,0,3,3,101.85075,True,2.434
14,0,13-May-2018,1,1,1,Sub14_Trial1_0,0,4,4,27.830103,True,2.434
14,0,13-May-2018,1,1,1,Sub14_Trial1_0,0,5,5,-32.661151,True,2.434
14,0,13-May-2018,1,1,1,Sub14_Trial1_0,0,6,6,-19.357034,True,2.434
14,0,13-May-2018,1,1,1,Sub14_Trial1_1,1,0,0,-2.85091,False,2.434
14,0,13-May-2018,1,1,1,Sub14_Trial1_1,1,1,1,79.833712,False,2.434
14,0,13-May-2018,1,1,1,Sub14_Trial1_1,1,2,2,37.571601,False,2.434
14,0,13-May-2018,1,1,1,Sub14_Trial1_1,1,3,3,47.932028,False,2.434
14,0,13-May-2018,1,1,1,Sub14_Trial1_1,1,4,4,-57.55673,False,2.434
14,0,13-May-2018,1,1,1,Sub14_Trial1_1,1,5,5,33.115001,False,2.434
14,0,13-May-2018,1,1,1,Sub14_Trial1_1,1,6,6,-114.289047,False,2.434
14,0,13-May-2018,1,1,2,Sub14_Trial2_0,0,0,0,-97.79033,True,1.131
14,0,13-May-2018,1,1,2,Sub14_Trial2_0,0,1,1,-109.963777,True,1.131
14,0,13-May-2018,1,1,2,Sub14_Trial2_0,0,2,2,14.025301,True,1.131
14,0,13-May-2018,1,1,2,Sub14_Trial2_0,0,3,3,7.765322,True,1.131
14,0,13-May-2018,1,1,2,Sub14_Trial2_0,0,4,4,195.905508,True,1.131
14,0,13-May-2018,1,1,2,Sub14_Trial2_0,0,5,5,43.932649,True,1.131
14,0,13-May-2018,1,1,2,Sub14_Trial2_0,0,6,6,68.159498,True,1.131
14,0,13-May-2018,1,1,2,Sub14_Trial2_1,1,0,0,-43.217053,False,1.131
14,0,13-May-2018,1,1,2,Sub14_Trial2_1,1,1,1,-116.417735,False,1.131
14,0,13-May-2018,1,1,2,Sub14_Trial2_1,1,2,2,60.992614,False,1.131
14,0,13-May-2018,1,1,2,Sub14_Trial2_1,1,3,3,188.142142,False,1.131
14,0,13-May-2018,1,1,2,Sub14_Trial2_1,1,4,4,66.669502,False,1.131
14,0,13-May-2018,1,1,2,Sub14_Trial2_1,1,5,5,95.794399,False,1.131
14,0,13-May-2018,1,1,2,Sub14_Trial2_1,1,6,6,-0.092437,False,1.131
14,0,13-May-2018,1,1,3,Sub14_Trial3_0,0,0,0,35.180265,False,1.776
14,0,13-May-2018,1,1,3,Sub14_Trial3_0,0,1,1,91.935683,False,1.776
14,0,13-May-2018,1,1,3,Sub14_Trial3_0,0,2,2,-98.68977,False,1.776
14,0,13-May-2018,1,1,3,Sub14_Trial3_0,0,3,3,35.714413,False,1.776
14,0,13-May-2018,1,1,3,Sub14_Trial3_0,0,4,4,-6.986334,False,1.776
14,0,13-May-2018,1,1,3,Sub14_Trial3_0,0,5,5,-47.602663,False,1.776
14,0,13-May-2018,1,1,3,Sub14_Trial3_0,0,6,6,28.660923,False,1.776
14,0,13-May-2018,1,1,3,Sub14_Trial3_1,1,0,0,30.34519,True,1.776
14,0,13-May-2018,1,1,3,Sub14_Trial3_1,1,1,1,-41.98334,True,1.776
14,0,13-May-2018,1,1,3,Sub14_Trial3_1,1,2,2,-13.510307,True,1.776
14,0,13-May-2018,1,1,3,Sub14_Trial3_1,1,3,3,53.063563,True,1.776
14,0,13-May-2018,1,1,3,Sub14_Trial3_1,1,4,4,-167.59719,True,1.776
14,0,13-May-2018,1,1,3,Sub14_Trial3_1,1,5,5,-87.704462,True,1.776
14,0,13-May-2018,1,1,3,Sub14_Trial3_1,1,6,6,-125.684533,True,1.776
14,0,13-May-2018,1,1,4,Sub14_Trial4_0,0,0,0,10.324655,True,0.919
14,0,13-May-2018,1,1,4,Sub14_Trial4_0,0,1,1,52.212248,True,0.919
14,0,13-May-2018,1,1,4,Sub14_Trial4_0,0,2,2,41.283651,True,0.919
14,0,13-May-2018,1,1,4,Sub14_Trial4_0,0,3,3,84.251017,True,0.919
14,0,13-May-2018,1,1,4,Sub14_Trial4_0,0,4,4,8.401706,True,0.919
14,0,13-May-2018,1,1,4,Sub14_Trial4_0,0,5,5,-128.095018,True,0.919
14,0,13-May-2018,1,1,4,Sub14_Trial4_0,0,6,6,-65.742335,True,0.919
14,0,13-May-2018,1,1,4,Sub14_Trial4_1,1,0,0,-138.851958,False,0.919
14,0,13-May-2018,1,1,4,Sub14_Trial4_1,1,1,1,53.456122,False,0.919
14,0,13-May-2018,1,1,4,Sub14_Trial4_1,1,2,2,-0.653443,False,0.919
14,0,13-May-2018,1,1,4,Sub14_Trial4_1,1,3,3,-91.830733,False,0.919
14,0,13-May-2018,1,1,4,Sub14_Trial4_1,1,4,4,58.605834,False,0.919
14,0,13-May-2018,1,1,4,Sub14_Trial4_1,1,5,5,48.575292,False,0.919
14,0,13-May-2018,1,1,4,Sub14_Trial4_1,1,6,6,-156.420307,False,0.919
14,0,13-May-2018,1,1,5,Sub14_Trial5_0,0,0,0,-50.683951,True,1.42
14,0,13-May-2018,1,1,5,Sub14_Trial5_0,0,1,1,-133.689175,True,1.42
14,0,13-May-2018,1,1,5,Sub14_Trial5_0,0,2,2,80.196176,True,1.42
14,0,13-May-2018,1,1,5,Sub14_Trial5_0,0,3,3,24.937271,True,1.42
14,0,13-May-2018,1,1,5,Sub14_Trial5_0,0,4,4,93.145611,True,1.42
14,0,13-May-2018,1,1,5,Sub14_Trial5_0,0,5,5,-152.884681,True,1.42
14,0,13-May-2018,1,1,5,Sub14_Trial5_0,0,6,6,74.900525,True,1.42
14,0,13-May-2018,1,1,5,Sub14_Trial5_1,1,0,0,-44.134514,False,1.42
14,0,13-May-2018,1,1,5,Sub14_Trial5_1,1,1,1,7.914753,False,1.42
14,0,13-May-2018,1,1,5,Sub14_Trial5_1,1,2,2,-22.240191,False,1.42
14,0,13-May-2018,1,1,5,Sub14_Trial5_1,1,3,3,-66.420851,False,1.42
14,0,13-May-2018,1,1,5,Sub14_Trial5_1,1,4,4,-129.480266,False,1.42
14,0,13-May-2018,1,1,5,Sub14_Trial5_1,1,5,5,-53.704074,False,1.42
14,0,13-May-2018,1,1,5,Sub14_Trial5_1,1,6,6,-19.076834,False,1.42
14,0,13-May-2018,1,1,6,Sub14_Trial6_0,0,0,0,-41.257005,True,1.143
14,0,13-May-2018,1,1,6,Sub14_Trial6_0,0,1,1,-11.708045,True,1.143
14,0,13-May-2018,1,1,6,Sub14_Trial6_0,0,2,2,87.857554,True,1.143
14,0,13-May-2018,1,1,6,Sub14_Trial6_0,0,3,3,-151.805979,True,1.143
14,0,13-May-2018,1,1,6,Sub14_Trial6_0,0,4,4,-14.759838,True,1.143
14,0,13-May-2018,1,1,6,Sub14_Trial6_0,0,5,5,-6.771602,True,1.143
14,0,13-May-2018,1,1,6,Sub14_Trial6_0,0,6,6,-34.689976,True,1.143
14,0,13-May-2018,1,1,6,Sub14_Trial6_1,1,0,0,13.98054,False,1.143
14,0,13-May-2018,1,1,6,Sub14_Trial6_1,1,1,1,-99.031524,False,1.143
14,0,13-May-2018,1,1,6,Sub14_Trial6_1,1,2,2,-172.356412,False,1.143
14,0,13-May-2018,1,1,6,Sub14_Trial6_1,1,3,3,43.758127,False,1.143
14,0,13-May-2018,1,1,6,Sub14_Trial6_1,1,4,4,-6.861259,False,1.143
14,0,13-May-2018,1,1,6,Sub14_Trial6_1,1,5,5,-168.013222,False,1.143
14,0,13-May-2018,1,1,6,Sub14_Trial6_1,1,6,6,80.633763,False,1.143
14,0,13-May-2018,1,1,7,Sub14_Trial7_0,0,0,0,-91.057264,True,0.946
14,0,13-May-2018,1,1,7,Sub14_Trial7_0,0,1,1,-84.338812,True,0.946
14,0,13-May-2018,1,1,7,Sub14_Trial7_0,0,2,2,18.270751,True,0.946
14,0,13-May-2018,1,1,7,Sub14_Trial7_0,0,3,3,38.196525,True,0.946
14,0,13-May-2018,1,1,7,Sub14_Trial7_0,0,4,4,-30.009088,True,0.946
14,0,13-May-2018,1,1,7,Sub14_Trial7_0,0,5,5,25.1542,True,0.946
14,0,13-May-2018,1,1,7,Sub14_Trial7_0,0,6,6,75.372373,True,0.946
14,0,13-May-2018,1,1,7,Sub14_Trial7_1,1,0,0,34.094975,False,0.946
14,0,13-May-2018,1,1,7,Sub14_Trial7_1,1,1,1,75.243308,False,0.946
14,0,13-May-2018,1,1,7,Sub14_Trial7_1,1,2,2,51.890065,False,0.946
14,0,13-May-2018,1,1,7,Sub14_Trial7_1,1,3,3,-55.395962,False,0.946
14,0,13-May-2018,1,1,7,Sub14_Trial7_1,1,4,4,83.345121,False,0.946
14,0,13-May-2018,1,1,7,Sub14_Trial7_1,1,5,5,1.870627,False,0.946
14,0,13-May-2018,1,1,7,Sub14_Trial7_1,1,6,6,127.568555,False,0.946
14,0,13-May-2018,1,1,8,Sub14_Trial8_0,0,0,0,-94.336712,True,2.223
14,0,13-May-2018,1,1,8,Sub14_Trial8_0,0,1,1,6.114133,True,2.223
14,0,13-May-2018,1,1,8,Sub14_Trial8_0,0,2,2,114.885298,True,2.223
14,0,13-May-2018,1,1,8,Sub14_Trial8_0,0,3,3,9.928357,True,2.223
14,0,13-May-2018,1,1,8,Sub14_Trial8_0,0,4,4,68.159666,True,2.223
14,0,13-May-2018,1,1,8,Sub14_Trial8_0,0,5,5,-75.857353,True,2.223
14,0,13-May-2018,1,1,8,Sub14_Trial8_0,0,6,6,-26.341005,True,2.223
14,0,13-May-2018,1,1,8,Sub14_Trial8_1,1,0,0,104.269024,False,2.223
14,0,13-May-2018,1,1,8,Sub14_Trial8_1,1,1,1,37.4596,False,2.223
14,0,13-May-2018,1,1,8,Sub14_Trial8_1,1,2,2,0.202052,False,2.223
14,0,13-May-2018,1,1,8,Sub14_Trial8_1,1,3,3,7.193759,False,2.223
14,0,13-May-2018,1,1,8,Sub14_Trial8_1,1,4,4,183.109354,False,2.223
14,0,13-May-2018,1,1,8,Sub14_Trial8_1,1,5,5,97.513818,False,2.223
14,0,13-May-2018,1,1,8,Sub14_Trial8_1,1,6,6,-122.19954,False,2.223
14,0,13-May-2018,1,1,9,Sub14_Trial9_0,0,0,0,88.206354,False,0.716
14,0,13-May-2018,1,1,9,Sub14_Trial9_0,0,1,1,-80.841667,False,0.716
14,0,13-May-2018,1,1,9,Sub14_Trial9_0,0,2,2,72.789916,False,0.716
14,0,13-May-2018,1,1,9,Sub14_Trial9_0,0,3,3,-83.316172,False,0.716
14,0,13-May-2018,1,1,9,Sub14_Trial9_0,0,4,4,65.424885,False,0.716
14,0,13-May-2018,1,1,9,Sub14_Trial9_0,0,5,5,-115.503031,False,0.716
14,0,13-May-2018,1,1,9,Sub14_Trial9_0,0,6,6,3.931824,False,0.716
14,0,13-May-2018,1,1,9,Sub14_Trial9_1,1,0,0,32.615117,True,0.716
14,0,13-May-2018,1,1,9,Sub14_Trial9_1,1,1,1,-3.612851,True,0.716
14,0,13-May-2018,1,1,9,Sub14_Trial9_1,1,2,2,44.64339,True,0.716
14,0,13-May-2018,1,1,9,Sub14_Trial9_1,1,3,3,-55.515229,True,0.716
14,0,13-May-2018,1,1,9,Sub14_Trial9_1,1,4,4,-68.562083,True,0.716
14,0,13-May-2018,1,1,9,Sub14_Trial9_1,1,5,5,194.459232,True,0.716
14,0,13-May-2018,1,1,9,Sub14_Trial9_1,1,6,6,-122.963622,True,0.716
14,0,13-May-2018,1,1,10,Sub14_Trial10_0,0,0,0,-109.581608,True,0.832
14,0,13-May-2018,1,1,10,Sub14_Trial10_0,0,1,1,13.835275,True,0.832
14,0,13-May-2018,1,1,10,Sub14_Trial10_0,0,2,2,38.059663,True,0.832
14,0,13-May-2018,1,1,10,Sub14_Trial10_0,0,3,3,39.067075,True,0.832
14,0,13-May-2018,1,1,10,Sub14_Trial10_0,0,4,4,-127.405902,True,0.832
14,0,13-May-2018,1,1,10,Sub14_Trial10_0,0,5,5,-8.506107,True,0.832
14,0,13-May-2018,1,1,10,Sub14_Trial10_0,0,6,6,82.985506,True,0.832
14,0,13-May-2018,1,1,10,Sub14_Trial10_1,1,0,0,3.101792,False,0.832
14,0,13-May-2018,1,1,10,Sub14_Trial10_1,1,1,1,-0.217917,False,0.832
14,0,13-May-2018,1,1,10,Sub14_Trial10_1,1,2,2,-23.699473,False,0.832
14,0,13-May-2018,1,1,10,Sub14_Trial10_1,1,3,3,34.699186,False,0.832
14,0,13-May-2018,1,1,10,Sub14_Trial10_1,1,4,4,-85.22986,False,0.832
14,0,13-May-2018,1,1,10,Sub14_Trial10_1,1,5,5,-59.759973,False,0.832
14,0,13-May-2018,1,1,10,Sub14_Trial10_1,1,6,6,124.168321,False,0.832
14,0,13-May-2018,1,1,11,Sub14_Trial11_0,0,0,0,-21.716609,False,0.561
14,0,13-May-2018,1,1,11,Sub14_Trial11_0,0,1,1,-38.621239,False,0.561
14,0,13-May-2018,1,1,11,Sub14_Trial11_0,0,2,2,-26.112885,False,0.561
14,0,13-May-2018,1,1,11,Sub14_Trial11_0,0,3,3,24.315349,False,0.561
14,0,13-May-2018,1,1,11,Sub14_Trial11_0,0,4,4,-54.466253,False,0.561
14,0,13-May-2018,1,1,11,Sub14_Trial11_0,0,5,5,54.413975,False,0.561
14,0,13-May-2018,1,1,11,Sub14_Trial11_0,0,6,6,-0.823312,False,0.561
14,0,13-May-2018,1,1,11,Sub14_Trial11_1,1,0,0,13.728215,True,0.561
14,0,13-May-2018,1,1,11,Sub14_Trial11_1,1,1,1,81.704121,True,0.561
14,0,13-May-2018,1,1,11,Sub14_Trial11_1,1,2,2,-21.537049,True,0.561
14,0,13-May-2018,1,1,11,Sub14_Trial11_1,1,3,3,21.313417,True,0.561
14,0,13-May-2018,1,1,11,Sub14_Trial11_1,1,4,4,-47.684371,True,0.561
14,0,13-May-2018,1,1,11,Sub14_Trial11_1,1,5,5,80.875454,True,0.561
14,0,13-May-2018,1,1,11,Sub14_Trial11_1,1,6,6,-63.034151,True,0.561
14,0,13-May-2018,1,1,12,Sub14_Trial12_0,0,0,0,-22.96438,False,0.722
14,0,13-May-2018,1,1,12,Sub14_Trial12_0,0,1,1,-15.815877,False,0.722
14,0,13-May-2018,1,1,12,Sub14_Trial12_0,0,2,2,43.249785,False,0.722
14,0,13-May-2018,1,1,12,Sub14_Trial12_0,0,3,3,-112.521688,False,0.722
14,0,13-May-2018,1,1,12,Sub14_Trial12_0,0,4,4,28.205132,False,0.722
14,0,13-May-2018,1,1,12,Sub14_Trial12_0,0,5,5,120.160963,False,0.722
14,0,13-May-2018,1,1,12,Sub14_Trial12_0,0,6,6,102.668485,False,0.722
14,0,13-May-2018,1,1,12,Sub14_Trial12_1,1,0,0,142.355793,True,0.722
14,0,13-May-2018,1,1,12,Sub14_Trial12_1,1,1,1,17.767408,True,0.722
14,0,13-May-2018,1,1,12,Sub14_Trial12_1,1,2,2,49.645438,True,0.722
14,0,13-May-2018,1,1,12,Sub14_Trial12_1,1,3,3,-53.370032,True,0.722
14,0,13-May-2018,1,1,12,Sub14_Trial12_1,1,4,4,166.822366,True,0.722
14,0,13-May-2018,1,1,12,Sub14_Trial12_1,1,5,5,-10.645854,True,0.722
14,0,13-May-2018,1,1,12,Sub14_Trial12_1,1,6,6,-133.811736,True,0.722
14,0,13-May-2018,1,1,13,Sub14_Trial13_0,0,0,0,60.028309,True,0.895
14,0,13-May-2018,1,1,13,Sub14_Trial13_0,0,1,1,116.354192,True,0.895
14,0,13-May-2018,1,1,13,Sub14_Trial13_0,0,2,2,36.834257,True,0.895
14,0,13-May-2018,1,1,13,Sub14_Trial13_0,0,3,3,-165.298502,True,0.895
14,0,13-May-2018,1,1,13,Sub14_Trial13_0,0,4,4,-47.777096,True,0.895
14,0,13-May-2018,1,1,13,Sub14_Trial13_0,0,5,5,54.622481,True,0.895
14,0,13-May-2018,1,1,13,Sub14_Trial13_0,0,6,6,84.666945,True,0.895
14,0,13-May-2018,1,1,13,Sub14_Trial13_1,1,0,0,52.948541,False,0.895
14,0,13-May-2018,1,1,13,Sub14_Trial13_1,1,1,1,16.761941,False,0.895
14,0,13-May-2018,1,1,13,Sub14_Trial13_1,1,2,2,-63.816415,False,0.895
14,0,13-May-2018,1,1,13,Sub14_Trial13_1,1,3,3,47.308155,False,0.895
14,0,13-May-2018,1,1,13,Sub14_Trial13_1,1,4,4,26.009257,False,0.895
14,0,13-May-2018,1,1,13,Sub14_Trial13_1,1,5,5,50.561842,False,0.895
14,0,13-May-2018,1,1,13,Sub14_Trial13_1,1,6,6,94.814489,False,0.895
14,0,13-May-2018,1,1,14,Sub14_Trial14_0,0,0,0,-39.820695,False,2.655
14,0,13-May-2018,1,1,14,Sub14_Trial14_0,0,1,1,-67.556022,False,2.655
14,0,13-May-2018,1,1,14,Sub14_Trial14_0,0,2,2,-130.7224,False,2.655
14,0,13-May-2018,1,1,14,Sub14_Trial14_0,0,3,3,-12.160426,False,2.655
14,0,13-May-2018,1,1,14,Sub14_Trial14_0,0,4,4,-15.194204,False,2.655
14,0,13-May-2018,1,1,14,Sub14_Trial14_0,0,5,5,-11.697392,False,2.655
14,0,13-May-2018,1,1,14,Sub14_Trial14_0,0,6,6,63.876412,False,2.655
14,0,13-May-2018,1,1,14,Sub14_Trial14_1,1,0,0,-30.273941,True,2.655
14,0,13-May-2018,1,1,14,Sub14_Trial14_1,1,1,1,-149.618039,True,2.655
14,0,13-May-2018,1,1,14,Sub14_Trial14_1,1,2,2,46.1156,True,2.655
14,0,13-May-2018,1,1,14,Sub14_Trial14_1,1,3,3,64.509799,True,2.655
14,0,13-May-2018,1,1,14,Sub14_Trial14_1,1,4,4,-43.126415,True,2.655
14,0,13-May-2018,1,1,14,Sub14_Trial14_1,1,5,5,10.446555,True,2.655
14,0,13-May-2018,1,1,14,Sub14_Trial14_1,1,6,6,50.725316,True,2.655
14,0,13-May-2018,1,1,15,Sub14_Trial15_0,0,0,0,2.308286,False,0.904
14,0,13-May-2018,1,1,15,Sub14_Trial15_0,0,1,1,-33.897986,False,0.904
14,0,13-May-2018,1,1,15,Sub14_Trial15_0,0,2,2,-63.295472,False,0.904
14,0,13-May-2018,1,1,15,Sub14_Trial15_0,0,3,3,-30.528037,False,0.904
14,0,13-May-2018,1,1,15,Sub14_Trial15_0,0,4,4,-53.935532,False,0.904
14,0,13-May-2018,1,1,15,Sub14_Trial15_0,0,5,5,21.529282,False,0.904
14,0,13-May-2018,1,1,15,Sub14_Trial15_0,0,6,6,-20.115758,False,0.904
14,0,13-May-2018,1,1,15,Sub14_Trial15_1,1,0,0,22.054329,True,0.904
14,0,13-May-2018,1,1,15,Sub14_Trial15_1,1,1,1,-5.337469,True,0.904
14,0,13-May-2018,1,1,15,Sub14_Trial15_1,1,2,2,56.244529,True,0.904
14,0,13-May-2018,1,1,15,Sub14_Trial15_1,1,3,3,128.099734,True,0.904
14,0,13-May-2018,1,1,15,Sub14_Trial15_1,1,4,4,52.678841,True,0.904
14,0,13-May-2018,1,1,15,Sub14_Trial15_1,1,5,5,197.238452,True,0.904
14,0,13-May-2018,1,1,15,Sub14_Trial15_1,1,6,6,170.961149,True,0.904
14,0,13-May-2018,1,1,16,Sub14_Trial16_0,0,0,0,28.063794,True,0.818
14,0,13-May-2018,1,1,16,Sub14_Trial16_0,0,1,1,150.872163,True,0.818
14,0,13-May-2018,1,1,16,Sub14_Trial16_0,0,2,2,-143.68182,True,0.818
14,0,13-May-2018,1,1,16,Sub14_Trial16_0,0,3,3,59.983341,True,0.818
14,0,13-May-2018,1,1,16,Sub14_Trial16_0,0,4,4,86.669073,True,0.818
14,0,13-May-2018,1,1,16,Sub14_Trial16_0,0,5,5,-83.999843,True,0.818
14,0,13-May-2018,1,1,16,Sub14_Trial16_0,0,6,6,8.123852,True,0.818
14,0,13-May-2018,1,1,16,Sub14_Trial16_1,1,0,0,128.478333,False,0.818
14,0,13-May-2018,1,1,16,Sub14_Trial16_1,1,1,1,-193.996206,False,0.818
14,0,13-May-2018,1,1,16,Sub14_Trial16_1,1,2,2,10.117789,False,0.818
14,0,13-May-2018,1,1,16,Sub14_Trial16_1,1,3,3,-50.189362,False,0.818
14,0,13-May-2018,1,1,16,Sub14_Trial16_1,1,4,4,30.414716,False,0.818
14,0,13-May-2018,1,1,16,Sub14_Trial16_1,1,5,5,-118.411356,False,0.818
14,0,13-May-2018,1,1,16,Sub14_Trial16_1,1,6,6,37.810511,False,0.818
14,0,13-May-2018,1,1,17,Sub14_Trial17_0,0,0,0,-18.245305,False,1.544
14,0,13-May-2018,1,1,17,Sub14_Trial17_0,0,1,1,131.284682,False,1.544
14,0,13-May-2018,1,1,17,Sub14_Trial17_0,0,2,2,-116.487859,False,1.544
14,0,13-May-2018,1,1,17,Sub14_Trial17_0,0,3,3,41.989827,False,1.544
14,0,13-May-2018,1,1,17,Sub14_Trial17_0,0,4,4,-68.233523,False,1.544
14,0,13-May-2018,1,1,17,Sub14_Trial17_0,0,5,5,-42.162109,False,1.544
14,0,13-May-2018,1,1,17,Sub14_Trial17_0,0,6,6,-60.251796,False,1.544
14,0,13-May-2018,1,1,17,Sub14_Trial17_1,1,0,0,-31.968416,True,1.544
14,0,13-May-2018,1,1,17,Sub14_Trial17_1,1,1,1,-87.541913,True,1.544
14,0,13-May-2018,1,1,17,Sub14_Trial17_1,1,2,2,36.927729,True,1.544
14,0,13-May-2018,1,1,17,Sub14_Trial17_1,1,3,3,84.41081,True,1.544
14,0,13-May-2018,1,1,17,Sub14_Trial17_1,1,4,4,-14.601312,True,1.544
14,0,13-May-2018,1,1,17,Sub14_Trial17_1,1,5,5,-6.758627,True,1.544
14,0,13-May-2018,1,1,17,Sub14_Trial17_1,1,6,6,135.789724,True,1.544
14,0,13-May-2018,1,1,18,Sub14_Trial18_0,0,0,0,78.844367,False,0.862
14,0,13-May-2018,1,1,18,Sub14_Trial18_0,0,1,1,-82.474414,False,0.862
14,0,13-May-2018,1,1,18,Sub14_Trial18_0,0,2,2,81.45007,False,0.862
14,0,13-May-2018,1,1,18,Sub14_Trial18_0,0,3,3,-179.883173,False,0.862
14,0,13-May-2018,1,1,18,Sub14_Trial18_0,0,4,4,-64.552374,False,0.862
14,0,13-May-2018,1,1,18,Sub14_Trial18_0,0,5,5,10.212039,False,0.862
14,0,13-May-2018,1,1,18,Sub14_Trial18_0,0,6,6,-116.039133,False,0.862
14,0,13-May-2018,1,1,18,Sub14_Trial18_1,1,0,0,18.663899,True,0.862
14,0,13-May-2018,1,1,18,Sub14_Trial18_1,1,1,1,-66.171358,True,0.862
14,0,13-May-2018,1,1,18,Sub14_Trial18_1,1,2,2,-36.550611,True,0.862
14,0,13-May-2018,1,1,18,Sub14_Trial18_1,1,3,3,-56.203798,True,0.862
14,0,13-May-2018,1,1,18,Sub14_Trial18_1,1,4,4,48.106392,True,0.862
14,0,13-May-2018,1,1,18,Sub14_Trial18_1,1,5,5,134.760513,True,0.862
14,0,13-May-2018,1,1,18,Sub14_Trial18_1,1,6,6,87.785243,True,0.862
14,0,13-May-2018,1,1,19,Sub14_Trial19_0,0,0,0,-126.371377,True,0.557
14,0,13-May-2018,1,1,19,Sub14_Trial19_0,0,1,1,23.721043,True,0.557
14,0,13-May-2018,1,1,19,Sub14_Trial19_0,0,2,2,12.919359,True,0.557
14,0,13-May-2018,1,1,19,Sub14_Trial19_0,0,3,3,28.446559,True,0.557
14,0,13-May-2018,1,1,19,Sub14_Trial19_0,0,4,4,-19.006693,True,0.557
14,0,13-May-2018,1,1,19,Sub14_Trial19_0,0,5,5,-123.625487,True,0.557
14,0,13-May-2018,1,1,19,Sub14_Trial19_0,0,6,6,-72.218161,True,0.557
14,0,13-May-2018,1,1,19,Sub14_Trial19_1,1,0,0,21.135663,False,0.557
14,0,13-May-2018,1,1,19,Sub14_Trial19_1,1,1,1,-92.280074,False,0.557
14,0,13-May-2018,1,1,19,Sub14_Trial19_1,1,2,2,30.313122,False,0.557
14,0,13-May-2018,1,1,19,Sub14_Trial19_1,1,3,3,142.49293,False,0.557
14,0,13-May-2018,1,1,19,Sub14_Trial19_1,1,4,4,164.688621,False,0.557
14,0,13-May-2018,1,1,19,Sub14_Trial19_1,1,5,5,-7.995429,False,0.557
14,0,13-May-2018,1,1,19,Sub14_Trial19_1,1,6,6,-17.81147,False,0.557
14,0,13-May-2018,1,1,20,Sub14_Trial20_0,0,0,0,-1.419552,True,1.807
14,0,13-May-2018,1,1,20,Sub14_Trial20_0,0,1,1,-109.114888,True,1.807
14,0,13-May-2018,1,1,20,Sub14_Trial20_0,0,2,2,72.354364,True,1.807
14,0,13-May-2018,1,1,20,Sub14_Trial20_0,0,3,3,-102.61769,True,1.807
14,0,13-May-2018,1,1,20,Sub14_Trial20_0,0,4,4,-44.737135,True,1.807
14,0,13-May-2018,1,1,20,Sub14_Trial20_0,0,5,5,-98.090812,True,1.807
14,0,13-May-2018,1,1,20,Sub14_Trial20_0,0,6,6,-67.348434,True,1.807
14,0,13-May-2018,1,1,20,Sub14_Trial20_1,1,0,0,79.494113,False,1.807
14,0,13-May-2018,1,1,20,Sub14_Trial20_1,1,1,1,99.76343,False,1.807
14,0,13-May-2018,1,1,20,Sub14_Trial20_1,1,2,2,-38.287891,False,1.807
14,0,13-May-2018,1,1,20,Sub14_Trial20_1,1,3,3,19.233005,False,1.807
14,0,13-May-2018,1,1,20,Sub14_Trial20_1,1,4,4,-112.719494,False,1.807
14,0,13-May-2018,1,1,20,Sub14_Trial20_1,1,5,5,45.698688,False,1.807
14,0,13-May-2018,1,1,20,Sub14_Trial20_1,1,6,6,190.480574,False,1.807
14,0,13-May-2018,1,1,21,Sub14_Trial21_0,0,0,0,9.22917,False,0.652
14,0,13-May-2018,1,1,21,Sub14_Trial21_0,0,1,1,-179.741122,False,0.652
14,0,13-May-2018,1,1,21,Sub14_Trial21_0,0,2,2,-50.435825,False,0.652
14,0,13-May-2018,1,1,21,Sub14_Trial21_0,0,3,3,-40.131488,False,0.652
14,0,13-May-2018,1,1,21,Sub14_Trial21_0,0,4,4,-87.82273,False,0.652
14,0,13-May-2018,1,1,21,Sub14_Trial21_0,0,5,5,5.323843,False,0.652
14,0,13-May-2018,1,1,21,Sub14_Trial21_0,0,6,6,-87.623747,False,0.652
14,0,13-May-2018,1,1,21,Sub14_Trial21_1,1,0,0,31.918766,True,0.652
14,0,13-May-2018,1,1,21,Sub14_Trial21_1,1,1,1,52.114078,True,0.652
14,0,13-May-2018,1,1,21,Sub14_Trial21_1,1,2,2,9.370678,True,0.652
14,0,13-May-2018,1,1,21,Sub14_Trial21_1,1,3,3,116.690024,True,0.652
14,0,13-May-2018,1,1,21,Sub14_Trial21_1,1,4,4,-76.242233,True,0.652
14,0,13-May-2018,1,1,21,Sub14_Trial21_1,1,5,5,86.91171,True,0.652
14,0,13-May-2018,1,1,21,Sub14_Trial21_1,1,6,6,70.625938,True,0.652
14,0,13-May-2018,1,1,22,Sub14_Trial22_0,0,0,0,-44.09681,True,0.627
14,0,13-May-2018,1,1,22,Sub14_Trial22_0,0,1,1,-67.42631,True,0.627
14,0,13-May-2018,1,1,22,Sub14_Trial22_0,0,2,2,14.35678,True,0.627
14,0,13-May-2018,1,1,22,Sub14_Trial22_0,0,3,3,-92.867991,True,0.627
14,0,13-May-2018,1,1,22,Sub14_Trial22_0,0,4,4,-87.482531,True,0.627
14,0,13-May-2018,1,1,22,Sub14_Trial22_0,0,5,5,-60.523497,True,0.627
14,0,13-May-2018,1,1,22,Sub14_Trial22_0,0,6,6,-75.14055,True,0.627
14,0,13-May-2018,1,1,22,Sub14_Trial22_1,1,0,0,131.263386,False,0.627
14,0,13-May-2018,1,1,22,Sub14_Trial22_1,1,1,1,-14.407684,False,0.627
14,0,13-May-2018,1,1,22,Sub14_Trial22_1,1,2,2,73.793338,False,0.627
14,0,13-May-2018,1,1,22,Sub14_Trial22_1,1,3,3,-40.172552,False,0.627
14,0,13-May-2018,1,1,22,Sub14_Trial22_1,1,4,4,78.980677,False,0.627
14,0,13-May-2018,1,1,22,Sub14_Trial22_1,1,5,5,-81.004303,False,0.627
14,0,13-May-2018,1,1,22,Sub14_Trial22_1,1,6,6,4.639942,False,0.627
14,0,13-May-2018,1,1,23,Sub14_Trial23_0,0,0,0,-6.430656,True,0.53
14,0,13-May-2018,1,1,23,Sub14_Trial23_0,0,1,1,13.589488,True,0.53
14,0,13-May-2018,1,1,23,Sub14_Trial23_0,0,2,2,138.163692,True,0.53
14,0,13-May-2018,1,1,23,Sub14_Trial23_0,0,3,3,-40.778149,True,0.53
14,0,13-May-2018,1,1,23,Sub14_Trial23_0,0,4,4,101.462068,True,0.53
14,0,13-May-2018,1,1,23,Sub14_Trial23_0,0,5,5,66.781024,True,0.53
14,0,13-May-2018,1,1,23,Sub14_Trial23_0,0,6,6,-92.274552,True,0.53
14,0,13-May-2018,1,1,23,Sub14_Trial23_1,1,0,0,114.205115,False,0.53
14,0,13-May-2018,1,1,23,Sub14_Trial23_1,1,1,1,-65.156761,False,0.53
14,0,13-May-2018,1,1,23,Sub14_Trial23_1,1,2,2,129.200557,False,0.53
14,0,13-May-2018,1,1,23,Sub14_Trial23_1,1,3,3,89.316605,False,0.53
14,0,13-May-2018,1,1,23,Sub14_Trial23_1,1,4,4,-63.567843,False,0.53
14,0,13-May-2018,1,1,23,Sub14_Trial23_1,1,5,5,-80.624705,False,0.53
14,0,13-May-2018,1,1,23,Sub14_Trial23_1,1,6,6,-24.367803,False,0.53
14,0,13-May-2018,1,1,24,Sub14_Trial24_0,0,0,0,92.171862,False,0.458
14,0,13-May-2018,1,1,24,Sub14_Trial24_0,0,1,1,-46.662114,False,0.458
14,0,13-May-2018,1,1,24,Sub14_Trial24_0,0,2,2,-138.960454,False,0.458
14,0,13-May-2018,1,1,24,Sub14_Trial24_0,0,3,3,-106.163594,False,0.458
14,0,13-May-2018,1,1,24,Sub14_Trial24_0,0,4,4,-112.617498,False,0.458
14,0,13-May-2018,1,1,24,Sub14_Trial24_0,0,5,5,74.123149,False,0.458
14,0,13-May-2018,1,1,24,Sub14_Trial24_0,0,6,6,-20.829882,False,0.458
14,0,13-May-2018,1,1,24,Sub14_Trial24_1,1,0,0,24.416657,True,0.458
14,0,13-May-2018,1,1,24,Sub14_Trial24_1,1,1,1,-161.666828,True,0.458
14,0,13-May-2018,1,1,24,Sub14_Trial24_1,1,2,2,-14.929329,True,0.458
14,0,13-May-2018,1,1,24,Sub14_Trial24_1,1,3,3,193.210947,True,0.458
14,0,13-May-2018,1,1,24,Sub14_Trial24_1,1,4,4,-63.722151,True,0.458
14,0,13-May-2018,1,1,24,Sub14_Trial24_1,1,5,5,1.787946,True,0.458
14,0,13-May-2018,1,1,24,Sub14_Trial24_1,1,6,6,-92.496507,True,0.458
14,0,13-May-2018,1,1,25,Sub14_Trial25_0,0,0,0,-107.852747,True,0.968
14,0,13-May-2018,1,1,25,Sub14_Trial25_0,0,1,1,-94.41249,True,0.968
14,0,13-May-2018,1,1,25,Sub14_Trial25_0,0,2,2,112.003528,True,0.968
14,0,13-May-2018,1,1,25,Sub14_Trial25_0,0,3,3,1.561807,True,0.968
14,0,13-May-2018,1,1,25,Sub14_Trial25_0,0,4,4,71.459369,True,0.968
14,0,13-May-2018,1,1,25,Sub14_Trial25_0,0,5,5,-52.444837,True,0.968
14,0,13-May-2018,1,1,25,Sub14_Trial25_0,0,6,6,102.222805,True,0.968
14,0,13-May-2018,1,1,25,Sub14_Trial25_1,1,0,0,-140.739655,False,0.968
14,0,13-May-2018,1,1,25,Sub14_Trial25_1,1,1,1,144.970071,False,0.968
14,0,13-May-2018,1,1,25,Sub14_Trial25_1,1,2,2,-57.655405,False,0.968
14,0,13-May-2018,1,1,25,Sub14_Trial25_1,1,3,3,98.414848,False,0.968
14,0,13-May-2018,1,1,25,Sub14_Trial25_1,1,4,4,26.244962,False,0.968
14,0,13-May-2018,1,1,25,Sub14_Trial25_1,1,5,5,-52.494806,False,0.968
14,0,13-May-2018,1,1,25,Sub14_Trial25_1,1,6,6,89.273264,False,0.968
14,0,13-May-2018,1,1,26,Sub14_Trial26_0,0,0,0,-100.551145,False,0.572
14,0,13-May-2018,1,1,26,Sub14_Trial26_0,0,1,1,87.229672,False,0.572
14,0,13-May-2018,1,1,26,Sub14_Trial26_0,0,2,2,8.232653,False,0.572
14,0,13-May-2018,1,1,26,Sub14_Trial26_0,0,3,3,-33.64974,False,0.572
14,0,13-May-2018,1,1,26,Sub14_Trial26_0,0,4,4,17.372062,False,0.572
14,0,13-May-2018,1,1,26,Sub14_Trial26_0,0,5,5,27.297684,False,0.572
14,0,13-May-2018,1,1,26,Sub14_Trial26_0,0,6,6,53.965369,False,0.572
14,0,13-May-2018,1,1,26,Sub14_Trial26_1,1,0,0,-97.700697,True,0.572
14,0,13-May-2018,1,1,26,Sub14_Trial26_1,1,1,1,10.360654,True,0.572
14,0,13-May-2018,1,1,26,Sub14_Trial26_1,1,2,2,-34.0308,True,0.572
14,0,13-May-2018,1,1,26,Sub14_Trial26_1,1,3,3,152.536589,True,0.572
14,0,13-May-2018,1,1,26,Sub14_Trial26_1,1,4,4,60.024146,True,0.572
14,0,13-May-2018,1,1,26,Sub14_Trial26_1,1,5,5,91.032453,True,0.572
14,0,13-May-2018,1,1,26,Sub14_Trial26_1,1,6,6,98.408675,True,0.572
14,0,13-May-2018,1,1,27,Sub14_Trial27_0,0,0,0,-56.770322,True,2.063
14,0,13-May-2018,1,1,27,Sub14_Trial27_0,0,1,1,64.970032,True,2.063
14,0,13-May-2018,1,1,27,Sub14_Trial27_0,0,2,2,26.088962,True,2.063
14,0,13-May-2018,1,1,27,Sub14_Trial27_0,0,3,3,32.121653,True,2.063
14,0,13-May-2018,1,1,27,Sub14_Trial27_0,0,4,4,17.875587,True,2.063
14,0,13-May-2018,1,1,27,Sub14_Trial27_0,0,5,5,17.813637,True,2.063
14,0,13-May-2018,1,1,27,Sub14_Trial27_0,0,6,6,-52.780024,True,2.063
14,0,13-May-2018,1,1,27,Sub14_Trial27_1,1,0,0,-27.325874,False,2.063
14,0,13-May-2018,1,1,27,Sub14_Trial27_1,1,1,1,-47.06068,False,2.063
14,0,13-May-2018,1,1,27,Sub14_Trial27_1,1,2,2,-13.884923,False,2.063
14,0,13-May-2018,1,1,27,Sub14_Trial27_1,1,3,3,137.003783,False,2.063
14,0,13-May-2018,1,1,27,Sub14_Trial27_1,1,4,4,49.490541,False,2.063
14,0,13-May-2018,1,1,27,Sub14_Trial27_1,1,5,5,194.611276,False,2.063
14,0,13-May-2018,1,1,27,Sub14_Trial27_1,1,6,6,-183.985157,False,2.063
14,0,13-May-2018,1,1,28,Sub14_Trial28_0,0,0,0,103.033773,True,0.952
14,0,13-May-2018,1,1,28,Sub14_Trial28_0,0,1,1,38.030438,True,0.952
14,0,13-May-2018,1,1,28,Sub14_Trial28_0,0,2,2,-48.522736,True,0.952
14,0,13-May-2018,1,1,28,Sub14_Trial28_0,0,3,3,-36.495377,True,0.952
14,0,13-May-2018,1,1,28,Sub14_Trial28_0,0,4,4,190.508262,True,0.952
14,0,13-May-2018,1,1,28,Sub14_Trial28_0,0,5,5,103.625298,True,0.952
14,0,13-May-2018,1,1,28,Sub14_Trial28_0,0,6,6,-56.595205,True,0.952
14,0,13-May-2018,1,1,28,Sub14_Trial28_1,1,0,0,85.852247,False,0.952
14,0,13-May-2018,1,1,28,Sub14_Trial28_1,1,1,1,-102.662713,False,0.952
14,0,13-May-2018,1,1,28,Sub14_Trial28_1,1,2,2,-73.421494,False,0.952
14,0,13-May-2018,1,1,28,Sub14_Trial28_1,1,3,3,1.949427,False,0.952
14,0,13-May-2018,1,1,28,Sub14_Trial28_1,1,4,4,-14.68018,False,0.952
14,0,13-May-2018,1,1,28,Sub14_Trial28_1,1,5,5,13.828008,False,0.952
14,0,13-May-2018,1,1,28,Sub14_Trial28_1,1,6,6,81.09009,False,0.952
14,0,13-May-2018,1,1,29,Sub14_Trial29_0,0,0,0,-78.08162,False,0.913
14,0,13-May-2018,1,1,29,Sub14_Trial29_0,0,1,1,64.394363,False,0.913
14,0,13-May-2018,1,1,29,Sub14_Trial29_0,0,2,2,9.151366,False,0.913
14,0,13-May-2018,1,1,29,Sub14_Trial29_0,0,3,3,-24.08183,False,0.913
14,0,13-May-2018,1,1,29,Sub14_Trial29_0,0,4,4,-2.659268,False,0.913
14,0,13-May-2018,1,1,29,Sub14_Trial29_0,0,5,5,-19.903867,False,0.913
14,0,13-May-2018,1,1,29,Sub14_Trial29_0,0,6,6,105.85167,False,0.913
14,0,13-May-2018,1,1,29,Sub14_Trial29_1,1,0,0,-10.638579,True,0.913
14,0,13-May-2018,1,1,29,Sub14_Trial29_1,1,1,1,-82.057879,True,0.913
14,0,13-May-2018,1,1,29,Sub14_Trial29_1,1,2,2,-111.146802,True,0.913
14,0,13-May-2018,1,1,29,Sub14_Trial29_1,1,3,3,-27.687716,True,0.913
14,0,13-May-2018,1,1,29,Sub14_Trial29_1,1,4,4,-90.632387,True,0.913
14,0,13-May-2018,1,1,29,Sub14_Trial29_1,1,5,5,6.930921,True,0.913
14,0,13-May-2018,1,1,29,Sub14_Trial29_1,1,6,6,-98.285816,True,0.913
14,0,13-May-2018,1,1,30,Sub14_Trial30_0,0,0,0,68.207461,False,0.587
14,0,13-May-2018,1,1,30,Sub14_Trial30_0,0,1,1,164.191439,False,0.587
14,0,13-May-2018,1,1,30,Sub14_Trial30_0,0,2,2,-57.635347,False,0.587
14,0,13-May-2018,1,1,30,Sub14_Trial30_0,0,3,3,-75.12199,False,0.587
14,0,13-May-2018,1,1,30,Sub14_Trial30_0,0,4,4,-10.680954,False,0.587
14,0,13-May-2018,1,1,30,Sub14_Trial30_0,0,5,5,-110.625731,False,0.587
14,0,13-May-2018,1,1,30,Sub14_Trial30_0,0,6,6,109.848117,False,0.587
14,0,13-May-2018,1,1,30,Sub14_Trial30_1,1,0,0,122.089651,True,0.587
14,0,13-May-2018,1,1,30,Sub14_Trial30_1,1,1,1,-6.949039,True,0.587
14,0,13-May-2018,1,1,30,Sub14_Trial30_1,1,2,2,-160.391921,True,0.587
14,0,13-May-2018,1,1,30,Sub14_Trial30_1,1,3,3,122.710239,True,0.587
14,0,13-May-2018,1,1,30,Sub14_Trial30_1,1,4,4,-67.481646,True,0.587
14,0,13-May-2018,1,1,30,Sub14_Trial30_1,1,5,5,-16.840388,True,0.587
14,0,13-May-2018,1,1,30,Sub14_Trial30_1,1,6,6,7.427939,True,0.587
14,0,13-May-2018,1,1,31,Sub14_Trial31_0,0,0,0,7.990635,True,1.016
14,0,13-May-2018,1,1,31,Sub14_Trial31_0,0,1,1,11.890672,True,1.016
14,0,13-May-2018,1,1,31,Sub14_Trial31_0,0,2,2,39.46412,True,1.016
14,0,13-May-2018,1,1,31,Sub14_Trial31_0,0,3,3,-26.87383,True,1.016
14,0,13-May-2018,1,1,31,Sub14_Trial31_0,0,4,4,127.653985,True,1.016
14,0,13-May-2018,1,1,31,Sub14_Trial31_0,0,5,5,18.27845,True,1.016
14,0,13-May-2018,1,1,31,Sub14_Trial31_0,0,6,6,147.133444,True,1.016
14,0,13-May-2018,1,1,31,Sub14_Trial31_1,1,0,0,-53.166848,False,1.016
14,0,13-May-2018,1,1,31,Sub14_Trial31_1,1,1,1,45.822856,False,1.016
14,0,13-May-2018,1,1,31,Sub14_Trial31_1,1,2,2,16.31032,False,1.016
14,0,13-May-2018,1,1,31,Sub14_Trial31_1,1,3,3,-144.791199,False,1.016
14,0,13-May-2018,1,1,31,Sub14_Trial31_1,1,4,4,-20.471005,False,1.016
14,0,13-May-2018,1,1,31,Sub14_Trial31_1,1,5,5,37.747359,False,1.016
14,0,13-May-2018,1,1,31,Sub14_Trial31_1,1,6,6,-90.616231,False,1.016
14,0,13-May-2018,1,1,32,Sub14_Trial32_0,0,0,0,-140.631078,False,0.408
14,0,13-May-2018,1,1,32,Sub14_Trial32_0,0,1,1,133.254369,False,0.408
14,0,13-May-2018,1,1,32,Sub14_Trial32_0,0,2,2,131.900804,False,0.408
14,0,13-May-2018,1,1,32,Sub14_Trial32_0,0,3,3,-105.078121,False,0.408
14,0,13-May-2018,1,1,32,Sub14_Trial32_0,0,4,4,-110.584704,False,0.408
14,0,13-May-2018,1,1,32,Sub14_Trial32_0,0,5,5,-121.630233,False,0.408
14,0,13-May-2018,1,1,32,Sub14_Trial32_0,0,6,6,-85.911426,False,0.408
14,0,13-May-2018,1,1,32,Sub14_Trial32_1,1,0,0,79.172829,True,0.408
14,0,13-May-2018,1,1,32,Sub14_Trial32_1,1,1,1,-76.887111,True,0.408
14,0,13-May-2018,1,1,32,Sub14_Trial32_1,1,2,2,31.106832,True,0.408
14,0,13-May-2018,1,1,32,Sub14_Trial32_1,1,3,3,-57.860363,True,0.408
14,0,13-May-2018,1,1,32,Sub14_Trial32_1,1,4,4,-45.742478,True,0.408
14,0,13-May-2018,1,1,32,Sub14_Trial32_1,1,5,5,130.132464,True,0.408
14,0,13-May-2018,1,1,32,Sub14_Trial32_1,1,6,6,93.240993,True,0.408
14,0,13-May-2018,1,1,33,Sub14_Trial33_0,0,0,0,162.464895,False,0.647
14,0,13-May-2018,1,1,33,Sub14_Trial33_0,0,1,1,50.517719,False,0.647
14,0,13-May-2018,1,1,33,Sub14_Trial33_0,0,2,2,84.420183,False,0.647
14,0,13-May-2018,1,1,33,Sub14_Trial33_0,0,3,3,49.391895,False,0.647
14,0,13-May-2018,1,1,33,Sub14_Trial33_0,0,4,4,-121.970326,False,0.647
14,0,13-May-2018,1,1,33,Sub14_Trial33_0,0,5,5,21.11527,False,0.647
14,0,13-May-2018,1,1,33,Sub14_Trial33_0,0,6,6,82.314872,False,0.647
14,0,13-May-2018,1,1,33,Sub14_Trial33_1,1,0,0,136.744043,True,0.647
14,0,13-May-2018,1,1,33,Sub14_Trial33_1,1,1,1,42.420917,True,0.647
14,0,13-May-2018,1,1,33,Sub14_Trial33_1,1,2,2,89.196366,True,0.647
14,0,13-May-2018,1,1,33,Sub14_Trial33_1,1,3,3,131.32349,True,0.647
14,0,13-May-2018,1,1,33,Sub14_Trial33_1,1,4,4,63.991572,True,0.647
14,0,13-May-2018,1,1,33,Sub14_Trial33_1,1,5,5,190.593046,True,0.647
14,0,13-May-2018,1,1,33,Sub14_Trial33_1,1,6,6,-64.452227,True,0.647
14,0,13-May-2018,1,1,34,Sub14_Trial34_0,0,0,0,68.277867,False,0.599
14,0,13-May-2018,1,1,34,Sub14_Trial34_0,0,1,1,-105.600168,False,0.599
14,0,13-May-2018,1,1,34,Sub14_Trial34_0,0,2,2,90.45724,False,0.599
14,0,13-May-2018,1,1,34,Sub14_Trial34_0,0,3,3,18.652491,False,0.599
14,0,13-May-2018,1,1,34,Sub14_Trial34_0,0,4,4,-48.927818,False,0.599
14,0,13-May-2018,1,1,34,Sub14_Trial34_0,0,5,5,-151.249391,False,0.599
14,0,13-May-2018,1,1,34,Sub14_Trial34_0,0,6,6,-146.195407,False,0.599
14,0,13-May-2018,1,1,34,Sub14_Trial34_1,1,0,0,57.397349,True,0.599
14,0,13-May-2018,1,1,34,Sub14_Trial34_1,1,1,1,40.876613,True,0.599
14,0,13-May-2018,1,1,34,Sub14_Trial34_1,1,2,2,-51.170898,True,0.599
14,0,13-May-2018,1,1,34,Sub14_Trial34_1,1,3,3,-37.860494,True,0.599
14,0,13-May-2018,1,1,34,Sub14_Trial34_1,1,4,4,48.153423,True,0.599
14,0,13-May-2018,1,1,34,Sub14_Trial34_1,1,5,5,29.212556,True,0.599
14,0,13-May-2018,1,1,34,Sub14_Trial34_1,1,6,6,97.413441,True,0.599
14,0,13-May-2018,1,1,35,Sub14_Trial35_0,0,0,0,-74.433059,False,0.426
14,0,13-May-2018,1,1,35,Sub14_Trial35_0,0,1,1,-40.211733,False,0.426
14,0,13-May-2018,1,1,35,Sub14_Trial35_0,0,2,2,-83.496466,False,0.426
14,0,13-May-2018,1,1,35,Sub14_Trial35_0,0,3,3,10.187426,False,0.426
14,0,13-May-2018,1,1,35,Sub14_Trial35_0,0,4,4,94.68541,False,0.426
14,0,13-May-2018,1,1,35,Sub14_Trial35_0,0,5,5,11.216267,False,0.426
14,0,13-May-2018,1,1,35,Sub14_Trial35_0,0,6,6,-91.379806,False,0.426
14,0,13-May-2018,1,1,35,Sub14_Trial35_1,1,0,0,-35.830573,True,0.426
14,0,13-May-2018,1,1,35,Sub14_Trial35_1,1,1,1,-185.91048,True,0.426
14,0,13-May-2018,1,1,35,Sub14_Trial35_1,1,2,2,40.216532,True,0.426
14,0,13-May-2018,1,1,35,Sub14_Trial35_1,1,3,3,110.972622,True,0.426
14,0,13-May-2018,1,1,35,Sub14_Trial35_1,1,4,4,-24.062493,True,0.426
14,0,13-May-2018,1,1,35,Sub14_Trial35_1,1,5,5,24.213566,True,0.426
14,0,13-May-2018,1,1,35,Sub14_Trial35_1,1,6,6,-108.694663,True,0.426
14,0,13-May-2018,1,1,36,Sub14_Trial36_0,0,0,0,52.235494,True,0.719
14,0,13-May-2018,1,1,36,Sub14_Trial36_0,0,1,1,-120.735489,True,0.719
14,0,13-May-2018,1,1,36,Sub14_Trial36_0,0,2,2,142.704511,True,0.719
14,0,13-May-2018,1,1,36,Sub14_Trial36_0,0,3,3,58.953547,True,0.719
14,0,13-May-2018,1,1,36,Sub14_Trial36_0,0,4,4,-50.099594,True,0.719
14,0,13-May-2018,1,1,36,Sub14_Trial36_0,0,5,5,-2.824143,True,0.719
14,0,13-May-2018,1,1,36,Sub14_Trial36_0,0,6,6,140.019433,True,0.719
14,0,13-May-2018,1,1,36,Sub14_Trial36_1,1,0,0,-26.450916,False,0.719
14,0,13-May-2018,1,1,36,Sub14_Trial36_1,1,1,1,-1.626109,False,0.719
14,0,13-May-2018,1,1,36,Sub14_Trial36_1,1,2,2,16.098965,False,0.719
14,0,13-May-2018,1,1,36,Sub14_Trial36_1,1,3,3,-54.371006,False,0.719
14,0,13-May-2018,1,1,36,Sub14_Trial36_1,1,4,4,-97.269416,False,0.719
14,0,13-May-2018,1,1,36,Sub14_Trial36_1,1,5,5,15.44431,False,0.719
14,0,13-May-2018,1,1,36,Sub14_Trial36_1,1,6,6,-85.236151,False,0.719
14,0,13-May-2018,1,1,37,Sub14_Trial37_0,0,0,0,-17.425876,True,0.431
14,0,13-May-2018,1,1,37,Sub14_Trial37_0,0,1,1,115.43127,True,0.431
14,0,13-May-2018,1,1,37,Sub14_Trial37_0,0,2,2,145.497214,True,0.431
14,0,13-May-2018,1,1,37,Sub14_Trial37_0,0,3,3,-47.16569,True,0.431
14,0,13-May-2018,1,1,37,Sub14_Trial37_0,0,4,4,-38.622965,True,0.431
14,0,13-May-2018,1,1,37,Sub14_Trial37_0,0,5,5,75.651574,True,0.431
14,0,13-May-2018,1,1,37,Sub14_Trial37_0,0,6,6,169.981586,True,0.431
14,0,13-May-2018,1,1,37,Sub14_Trial37_1,1,0,0,-82.353927,False,0.431
14,0,13-May-2018,1,1,37,Sub14_Trial37_1,1,1,1,-79.142315,False,0.431
14,0,13-May-2018,1,1,37,Sub14_Trial37_1,1,2,2,-44.533495,False,0.431
14,0,13-May-2018,1,1,37,Sub14_Trial37_1,1,3,3,64.892644,False,0.431
14,0,13-May-2018,1,1,37,Sub14_Trial37_1,1,4,4,63.498336,False,0.431
14,0,13-May-2018,1,1,37,Sub14_Trial37_1,1,5,5,-77.112478,False,0.431
14,0,13-May-2018,1,1,37,Sub14_Trial37_1,1,6,6,-29.797184,False,0.431
14,0,13-May-2018,1,1,38,Sub14_Trial38_0,0,0,0,8.532952,False,0.44
14,0,13-May-2018,1,1,38,Sub14_Trial38_0,0,1,1,51.383422,False,0.44
14,0,13-May-2018,1,1,38,Sub14_Trial38_0,0,2,2,-88.44137,False,0.44
14,0,13-May-2018,1,1,38,Sub14_Trial38_0,0,3,3,-149.28521,False,0.44
14,0,13-May-2018,1,1,38,Sub14_Trial38_0,0,4,4,-29.563598,False,0.44
14,0,13-May-2018,1,1,38,Sub14_Trial38_0,0,5,5,4.947011,False,0.44
14,0,13-May-2018,1,1,38,Sub14_Trial38_0,0,6,6,88.560672,False,0.44
14,0,13-May-2018,1,1,38,Sub14_Trial38_1,1,0,0,-107.543892,True,0.44
14,0,13-May-2018,1,1,38,Sub14_Trial38_1,1,1,1,107.308919,True,0.44
14,0,13-May-2018,1,1,38,Sub14_Trial38_1,1,2,2,15.885436,True,0.44
14,0,13-May-2018,1,1,38,Sub14_Trial38_1,1,3,3,37.148857,True,0.44
14,0,13-May-2018,1,1,38,Sub14_Trial38_1,1,4,4,-48.448993,True,0.44
14,0,13-May-2018,1,1,38,Sub14_Trial38_1,1,5,5,-31.008455,True,0.44
14,0,13-May-2018,1,1,38,Sub14_Trial38_1,1,6,6,89.254281,True,0.44
14,0,13-May-2018,1,1,39,Sub14_Trial39_0,0,0,0,30.916293,False,0.748
14,0,13-May-2018,1,1,39,Sub14_Trial39_0,0,1,1,92.646591,False,0.748
14,0,13-May-2018,1,1,39,Sub14_Trial39_0,0,2,2,106.108823,False,0.748
14,0,13-May-2018,1,1,39,Sub14_Trial39_0,0,3,3,-54.887249,False,0.748
14,0,13-May-2018,1,1,39,Sub14_Trial39_0,0,4,4,-75.181391,False,0.748
14,0,13-May-2018,1,1,39,Sub14_Trial39_0,0,5,5,-122.641605,False,0.748
14,0,13-May-2018,1,1,39,Sub14_Trial39_0,0,6,6,-17.444693,False,0.748
14,0,13-May-2018,1,1,39,Sub14_Trial39_1,1,0,0,32.346227,True,0.748
14,0,13-May-2018,1,1,39,Sub14_Trial39_1,1,1,1,-87.059756,True,0.748
14,0,13-May-2018,1,1,39,Sub14_Trial39_1,1,2,2,-43.019375,True,0.748
14,0,13-May-2018,1,1,39,Sub14_Trial39_1,1,3,3,166.067453,True,0.748
14,0,13-May-2018,1,1,39,Sub14_Trial39_1,1,4,4,-125.064357,True,0.748
14,0,13-May-2018,1,1,39,Sub14_Trial39_1,1,5,5,12.704449,True,0.748
14,0,13-May-2018,1,1,39,Sub14_Trial39_1,1,6,6,-155.810814,True,0.748
14,0,13-May-2018,1,1,40,Sub14_Trial40_0,0,0,0,-75.650606,False,0.434
14,0,13-May-2018,1,1,40,Sub14_Trial40_0,0,1,1,152.696941,False,0.434
14,0,13-May-2018,1,1,40,Sub14_Trial40_0,0,2,2,52.953692,False,0.434
14,0,13-May-2018,1,1,40,Sub14_Trial40_0,0,3,3,-82.986994,False,0.434
14,0,13-May-2018,1,1,40,Sub14_Trial40_0,0,4,4,-102.152908,False,0.434
14,0,13-May-2018,1,1,40,Sub14_Trial40_0,0,5,5,60.457195,False,0.434
14,0,13-May-2018,1,1,40,Sub14_Trial40_0,0,6,6,-155.054875,False,0.434
14,0,13-May-2018,1,1,40,Sub14_Trial40_1,1,0,0,159.551574,True,0.434
14,0,13-May-2018,1,1,40,Sub14_Trial40_1,1,1,1,-65.932954,True,0.434
14,0,13-May-2018,1,1,40,Sub14_Trial40_1,1,2,2,-95.598241,True,0.434
14,0,13-May-2018,1,1,40,Sub14_Trial40_1,1,3,3,65.187346,True,0.434
14,0,13-May-2018,1,1,40,Sub14_Trial40_1,1,4,4,6.00038,True,0.434
14,0,13-May-2018,1,1,40,Sub14_Trial40_1,1,5,5,41.161148,True,0.434
14,0,13-May-2018,1,1,40,Sub14_Trial40_1,1,6,6,52.997885,True,0.434
14,0,13-May-2018,1,1,41,Sub14_Trial41_0,0,0,0,12.064693,True,1.196
14,0,13-May-2018,1,1,41,Sub14_Trial41_0,0,1,1,-23.51217,True,1.196
14,0,13-May-2018,1,1,41,Sub14_Trial41_0,0,2,2,49.696635,True,1.196
14,0,13-May-2018,1,1,41,Sub14_Trial41_0,0,3,3,-39.723352,True,1.196
14,0,13-May-2018,1,1,41,Sub14_Trial41_0,0,4,4,182.23332,True,1.196
14,0,13-May-2018,1,1,41,Sub14_Trial41_0,0,5,5,-12.683493,True,1.196
14,0,13-May-2018,1,1,41,Sub14_Trial41_0,0,6,6,87.547823,True,1.196
14,0,13-May-2018,1,1,41,Sub14_Trial41_1,1,0,0,-70.767663,False,1.196
14,0,13-May-2018,1,1,41,Sub14_Trial41_1,1,1,1,-71.864093,False,1.196
14,0,13-May-2018,1,1,41,Sub14_Trial41_1,1,2,2,105.945575,False,1.196
14,0,13-May-2018,1,1,41,Sub14_Trial41_1,1,3,3,-57.868604,False,1.196
14,0,13-May-2018,1,1,41,Sub14_Trial41_1,1,4,4,166.329014,False,1.196
14,0,13-May-2018,1,1,41,Sub14_Trial41_1,1,5,5,77.776948,False,1.196
14,0,13-May-2018,1,1,41,Sub14_Trial41_1,1,6,6,-106.911231,False,1.196
14,0,13-May-2018,1,1,42,Sub14_Trial42_0,0,0,0,-123.461913,False,0.439
14,0,13-May-2018,1,1,42,Sub14_Trial42_0,0,1,1,-38.475627,False,0.439
14,0,13-May-2018,1,1,42,Sub14_Trial42_0,0,2,2,-13.474343,False,0.439
14,0,13-May-2018,1,1,42,Sub14_Trial42_0,0,3,3,-81.746449,False,0.439
14,0,13-May-2018,1,1,42,Sub14_Trial42_0,0,4,4,58.09863,False,0.439
14,0,13-May-2018,1,1,42,Sub14_Trial42_0,0,5,5,21.157646,False,0.439
14,0,13-May-2018,1,1,42,Sub14_Trial42_0,0,6,6,-95.473734,False,0.439
14,0,13-May-2018,1,1,42,Sub14_Trial42_1,1,0,0,-44.398682,True,0.439
14,0,13-May-2018,1,1,42,Sub14_Trial42_1,1,1,1,-43.268761,True,0.439
14,0,13-May-2018,1,1,42,Sub14_Trial42_1,1,2,2,-83.851221,True,0.439
14,0,13-May-2018,1,1,42,Sub14_Trial42_1,1,3,3,-54.211189,True,0.439
14,0,13-May-2018,1,1,42,Sub14_Trial42_1,1,4,4,-72.901455,True,0.439
14,0,13-May-2018,1,1,42,Sub14_Trial42_1,1,5,5,62.761942,True,0.439
14,0,13-May-2018,1,1,42,Sub14_Trial42_1,1,6,6,-96.248499,True,0.439
14,0,13-May-2018,1,1,43,Sub14_Trial43_0,0,0,0,-71.304177,True,0.945
14,0,13-May-2018,1,1,43,Sub14_Trial43_0,0,1,1,-38.444447,True,0.945
14,0,13-May-2018,1,1,43,Sub14_Trial43_0,0,2,2,-100.515565,True,0.945
14,0,13-May-2018,1,1,43,Sub14_Trial43_0,0,3,3,-41.773131,True,0.945
14,0,13-May-2018,1,1,43,Sub14_Trial43_0,0,4,4,-12.76015,True,0.945
14,0,13-May-2018,1,1,43,Sub14_Trial43_0,0,5,5,-7.925395,True,0.945
14,0,13-May-2018,1,1,43,Sub14_Trial43_0,0,6,6,-71.304035,True,0.945
14,0,13-May-2018,1,1,43,Sub14_Trial43_1,1,0,0,-41.483812,False,0.945
14,0,13-May-2018,1,1,43,Sub14_Trial43_1,1,1,1,64.087579,False,0.945
14,0,13-May-2018,1,1,43,Sub14_Trial43_1,1,2,2,-14.367009,False,0.945
14,0,13-May-2018,1,1,43,Sub14_Trial43_1,1,3,3,87.245189,False,0.945
14,0,13-May-2018,1,1,43,Sub14_Trial43_1,1,4,4,-175.620221,False,0.945
14,0,13-May-2018,1,1,43,Sub14_Trial43_1,1,5,5,-44.471231,False,0.945
14,0,13-May-2018,1,1,43,Sub14_Trial43_1,1,6,6,71.5207,False,0.945
14,0,13-May-2018,1,1,44,Sub14_Trial44_0,0,0,0,10.799723,False,0.434
14,0,13-May-2018,1,1,44,Sub14_Trial44_0,0,1,1,169.848715,False,0.434
14,0,13-May-2018,1,1,44,Sub14_Trial44_0,0,2,2,-53.889956,False,0.434
14,0,13-May-2018,1,1,44,Sub14_Trial44_0,0,3,3,127.350635,False,0.434
14,0,13-May-2018,1,1,44,Sub14_Trial44_0,0,4,4,-56.659355,False,0.434
14,0,13-May-2018,1,1,44,Sub14_Trial44_0,0,5,5,103.381096,False,0.434
14,0,13-May-2018,1,1,44,Sub14_Trial44_0,0,6,6,35.298333,False,0.434
14,0,13-May-2018,1,1,44,Sub14_Trial44_1,1,0,0,-58.645706,True,0.434
14,0,13-May-2018,1,1,44,Sub14_Trial44_1,1,1,1,11.910436,True,0.434
14,0,13-May-2018,1,1,44,Sub14_Trial44_1,1,2,2,-3.078425,True,0.434
14,0,13-May-2018,1,1,44,Sub14_Trial44_1,1,3,3,40.340776,True,0.434
14,0,13-May-2018,1,1,44,Sub14_Trial44_1,1,4,4,103.497637,True,0.434
14,0,13-May-2018,1,1,44,Sub14_Trial44_1,1,5,5,88.257376,True,0.434
14,0,13-May-2018,1,1,44,Sub14_Trial44_1,1,6,6,103.636166,True,0.434
14,0,13-May-2018,1,1,45,Sub14_Trial45_0,0,0,0,154.600053,False,0.524
14,0,13-May-2018,1,1,45,Sub14_Trial45_0,0,1,1,72.880531,False,0.524
14,0,13-May-2018,1,1,45,Sub14_Trial45_0,0,2,2,15.970995,False,0.524
14,0,13-May-2018,1,1,45,Sub14_Trial45_0,0,3,3,-157.571116,False,0.524
14,0,13-May-2018,1,1,45,Sub14_Trial45_0,0,4,4,95.355913,False,0.524
14,0,13-May-2018,1,1,45,Sub14_Trial45_0,0,5,5,73.285285,False,0.524
14,0,13-May-2018,1,1,45,Sub14_Trial45_0,0,6,6,-78.963604,False,0.524
14,0,13-May-2018,1,1,45,Sub14_Trial45_1,1,0,0,-93.238675,True,0.524
14,0,13-May-2018,1,1,45,Sub14_Trial45_1,1,1,1,-101.719991,True,0.524
14,0,13-May-2018,1,1,45,Sub14_Trial45_1,1,2,2,-84.748743,True,0.524
14,0,13-May-2018,1,1,45,Sub14_Trial45_1,1,3,3,-83.012174,True,0.524
14,0,13-May-2018,1,1,45,Sub14_Trial45_1,1,4,4,-37.848133,True,0.524
14,0,13-May-2018,1,1,45,Sub14_Trial45_1,1,5,5,137.399132,True,0.524
14,0,13-May-2018,1,1,45,Sub14_Trial45_1,1,6,6,50.474317,True,0.524
14,0,13-May-2018,1,1,46,Sub14_Trial46_0,0,0,0,-71.177505,False,0.855
14,0,13-May-2018,1,1,46,Sub14_Trial46_0,0,1,1,26.305907,False,0.855
14,0,13-May-2018,1,1,46,Sub14_Trial46_0,0,2,2,97.910829,False,0.855
14,0,13-May-2018,1,1,46,Sub14_Trial46_0,0,3,3,59.469233,False,0.855
14,0,13-May-2018,1,1,46,Sub14_Trial46_0,0,4,4,67.150067,False,0.855
14,0,13-May-2018,1,1,46,Sub14_Trial46_0,0,5,5,-165.810951,False,0.855
14,0,13-May-2018,1,1,46,Sub14_Trial46_0,0,6,6,1.742689,False,0.855
14,0,13-May-2018,1,1,46,Sub14_Trial46_1,1,0,0,-107.25117,True,0.855
14,0,13-May-2018,1,1,46,Sub14_Trial46_1,1,1,1,88.722749,True,0.855
14,0,13-May-2018,1,1,46,Sub14_Trial46_1,1,2,2,43.006788,True,0.855
14,0,13-May-2018,1,1,46,Sub14_Trial46_1,1,3,3,-98.402677,True,0.855
14,0,13-May-2018,1,1,46,Sub14_Trial46_1,1,4,4,62.1208,True,0.855
14,0,13-May-2018,1,1,46,Sub14_Trial46_1,1,5,5,-19.324689,True,0.855
14,0,13-May-2018,1,1,46,Sub14_Trial46_1,1,6,6,152.837803,True,0.855
14,0,13-May-2018,1,1,47,Sub14_Trial47_0,0,0,0,51.958328,True,0.994
14,0,13-May-2018,1,1,47,Sub14_Trial47_0,0,1,1,5.940869,True,0.994
14,0,13-May-2018,1,1,47,Sub14_Trial47_0,0,2,2,-2.35601,True,0.994
14,0,13-May-2018,1,1,47,Sub14_Trial47_0,0,3,3,106.239376,True,0.994
14,0,13-May-2018,1,1,47,Sub14_Trial47_0,0,4,4,-26.772056,True,0.994
14,0,13-May-2018,1,1,47,Sub14_Trial47_0,0,5,5,-1.807164,True,0.994
14,0,13-May-2018,1,1,47,Sub14_Trial47_0,0,6,6,63.0797,True,0.994
14,0,13-May-2018,1,1,47,Sub14_Trial47_1,1,0,0,-90.794753,False,0.994
14,0,13-May-2018,1,1,47,Sub14_Trial47_1,1,1,1,-54.285024,False,0.994
14,0,13-May-2018,1,1,47,Sub14_Trial47_1,1,2,2,-43.969085,False,0.994
14,0,13-May-2018,1,1,47,Sub14_Trial47_1,1,3,3,82.213346,False,0.994
14,0,13-May-2018,1,1,47,Sub14_Trial47_1,1,4,4,-74.111819,False,0.994
14,0,13-May-2018,1,1,47,Sub14_Trial47_1,1,5,5,-103.423906,False,0.994
14,0,13-May-2018,1,1,47,Sub14_Trial47_1,1,6,6,-25.53528,False,0.994
14,0,13-May-2018,1,1,48,Sub14_Trial48_0,0,0,0,-57.833128,False,0.37
14,0,13-May-2018,1,1,48,Sub14_Trial48_0,0,1,1,158.896218,False,0.37
14,0,13-May-2018,1,1,48,Sub14_Trial48_0,0,2,2,18.215111,False,0.37
14,0,13-May-2018,1,1,48,Sub14_Trial48_0,0,3,3,-29.960252,False,0.37
14,0,13-May-2018,1,1,48,Sub14_Trial48_0,0,4,4,47.702741,False,0.37
14,0,13-May-2018,1,1,48,Sub14_Trial48_0,0,5,5,36.549066,False,0.37
14,0,13-May-2018,1,1,48,Sub14_Trial48_0,0,6,6,-16.269722,False,0.37
14,0,13-May-2018,1,1,48,Sub14_Trial48_1,1,0,0,149.470805,True,0.37
14,0,13-May-2018,1,1,48,Sub14_Trial48_1,1,1,1,-4.443902,True,0.37
14,0,13-May-2018,1,1,48,Sub14_Trial48_1,1,2,2,-79.237313,True,0.37
14,0,13-May-2018,1,1,48,Sub14_Trial48_1,1,3,3,162.125487,True,0.37
14,0,13-May-2018,1,1,48,Sub14_Trial48_1,1,4,4,-64.674209,True,0.37
14,0,13-May-2018,1,1,48,Sub14_Trial48_1,1,5,5,28.459778,True,0.37
14,0,13-May-2018,1,1,48,Sub14_Trial48_1,1,6,6,-70.702724,True,0.37
14,0,13-May-2018,1,1,49,Sub14_Trial49_0,0,0,0,-21.849608,False,1.491
14,0,13-May-2018,1,1,49,Sub14_Trial49_0,0,1,1,26.070115,False,1.491
14,0,13-May-2018,1,1,49,Sub14_Trial49_0,0,2,2,-9.545311,False,1.491
14,0,13-May-2018,1,1,49,Sub14_Trial49_0,0,3,3,79.196696,False,1.491
14,0,13-May-2018,1,1,49,Sub14_Trial49_0,0,4,4,-61.000081,False,1.491
14,0,13-May-2018,1,1,49,Sub14_Trial49_0,0,5,5,90.147032,False,1.491
14,0,13-May-2018,1,1,49,Sub14_Trial49_0,0,6,6,-84.607607,False,1.491
14,0,13-May-2018,1,1,49,Sub14_Trial49_1,1,0,0,52.156497,True,1.491
14,0,13-May-2018,1,1,49,Sub14_Trial49_1,1,1,1,183.28511,True,1.491
14,0,13-May-2018,1,1,49,Sub14_Trial49_1,1,2,2,-80.745295,True,1.491
14,0,13-May-2018,1,1,49,Sub14_Trial49_1,1,3,3,-167.514801,True,1.491
14,0,13-May-2018,1,1,49,Sub14_Trial49_1,1,4,4,-66.83813,True,1.491
14,0,13-May-2018,1,1,49,Sub14_Trial49_1,1,5,5,-20.414501,True,1.491
14,0,13-May-2018,1,1,49,Sub14_Trial49_1,1,6,6,53.7575,True,1.491
14,0,13-May-2018,1,1,50,Sub14_Trial50_0,0,0,0,85.574681,False,1.163
14,0,13-May-2018,1,1,50,Sub14_Trial50_0,0,1,1,-142.355372,False,1.163
14,0,13-May-2018,1,1,50,Sub14_Trial50_0,0,2,2,-107.339935,False,1.163
14,0,13-May-2018,1,1,50,Sub14_Trial50_0,0,3,3,-33.009086,False,1.163
14,0,13-May-2018,1,1,50,Sub14_Trial50_0,0,4,4,43.088935,False,1.163
14,0,13-May-2018,1,1,50,Sub14_Trial50_0,0,5,5,-22.88165,False,1.163
14,0,13-May-2018,1,1,50,Sub14_Trial50_0,0,6,6,-29.487193,False,1.163
14,0,13-May-2018,1,1,50,Sub14_Trial50_1,1,0,0,-57.661967,True,1.163
14,0,13-May-2018,1,1,50,Sub14_Trial50_1,1,1,1,30.92137,True,1.163
14,0,13-May-2018,1,1,50,Sub14_Trial50_1,1,2,2,-60.64762,True,1.163
14,0,13-May-2018,1,1,50,Sub14_Trial50_1,1,3,3,75.109295,True,1.163
14,0,13-May-2018,1,1,50,Sub14_Trial50_1,1,4,4,106.899884,True,1.163
14,0,13-May-2018,1,1,50,Sub14_Trial50_1,1,5,5,83.419239,True,1.163
14,0,13-May-2018,1,1,50,Sub14_Trial50_1,1,6,6,-54.361169,True,1.163
14,0,13-May-2018,1,2,51,Sub14_Trial51_0,0,0,0,-107.448294,True,1.406
14,0,13-May-2018,1,2,51,Sub14_Trial51_0,0,1,1,57.55176,True,1.406
14,0,13-May-2018,1,2,51,Sub14_Trial51_0,0,2,2,122.157033,True,1.406
14,0,13-May-2018,1,2,51,Sub14_Trial51_0,0,3,3,-3.160333,True,1.406
14,0,13-May-2018,1,2,51,Sub14_Trial51_0,0,4,4,-176.375144,True,1.406
14,0,13-May-2018,1,2,51,Sub14_Trial51_0,0,5,5,174.323503,True,1.406
14,0,13-May-2018,1,2,51,Sub14_Trial51_0,0,6,6,104.552692,True,1.406
14,0,13-May-2018,1,2,51,Sub14_Trial51_1,1,0,0,-4.215923,False,1.406
14,0,13-May-2018,1,2,51,Sub14_Trial51_1,1,1,1,-60.31299,False,1.406
14,0,13-May-2018,1,2,51,Sub14_Trial51_1,1,2,2,-13.427473,False,1.406
14,0,13-May-2018,1,2,51,Sub14_Trial51_1,1,3,3,50.681358,False,1.406
14,0,13-May-2018,1,2,51,Sub14_Trial51_1,1,4,4,-56.193924,False,1.406
14,0,13-May-2018,1,2,51,Sub14_Trial51_1,1,5,5,-181.905903,False,1.406
14,0,13-May-2018,1,2,51,Sub14_Trial51_1,1,6,6,-158.96458,False,1.406
14,0,13-May-2018,1,2,52,Sub14_Trial52_0,0,0,0,-0.827401,True,1.427
14,0,13-May-2018,1,2,52,Sub14_Trial52_0,0,1,1,-19.624486,True,1.427
14,0,13-May-2018,1,2,52,Sub14_Trial52_0,0,2,2,-18.424148,True,1.427
14,0,13-May-2018,1,2,52,Sub14_Trial52_0,0,3,3,-141.054776,True,1.427
14,0,13-May-2018,1,2,52,Sub14_Trial52_0,0,4,4,110.690792,True,1.427
14,0,13-May-2018,1,2,52,Sub14_Trial52_0,0,5,5,-68.012534,True,1.427
14,0,13-May-2018,1,2,52,Sub14_Trial52_0,0,6,6,24.850337,True,1.427
14,0,13-May-2018,1,2,52,Sub14_Trial52_1,1,0,0,-152.927538,False,1.427
14,0,13-May-2018,1,2,52,Sub14_Trial52_1,1,1,1,-116.672451,False,1.427
14,0,13-May-2018,1,2,52,Sub14_Trial52_1,1,2,2,-51.671971,False,1.427
14,0,13-May-2018,1,2,52,Sub14_Trial52_1,1,3,3,-65.440809,False,1.427
14,0,13-May-2018,1,2,52,Sub14_Trial52_1,1,4,4,22.064923,False,1.427
14,0,13-May-2018,1,2,52,Sub14_Trial52_1,1,5,5,-26.256679,False,1.427
14,0,13-May-2018,1,2,52,Sub14_Trial52_1,1,6,6,17.289019,False,1.427
14,0,13-May-2018,1,2,53,Sub14_Trial53_0,0,0,0,-57.749978,False,0.855
14,0,13-May-2018,1,2,53,Sub14_Trial53_0,0,1,1,-35.694846,False,0.855
14,0,13-May-2018,1,2,53,Sub14_Trial53_0,0,2,2,-150.542692,False,0.855
14,0,13-May-2018,1,2,53,Sub14_Trial53_0,0,3,3,97.118712,False,0.855
14,0,13-May-2018,1,2,53,Sub14_Trial53_0,0,4,4,117.276155,False,0.855
14,0,13-May-2018,1,2,53,Sub14_Trial53_0,0,5,5,111.642142,False,0.855
14,0,13-May-2018,1,2,53,Sub14_Trial53_0,0,6,6,-28.184419,False,0.855
14,0,13-May-2018,1,2,53,Sub14_Trial53_1,1,0,0,23.997286,True,0.855
14,0,13-May-2018,1,2,53,Sub14_Trial53_1,1,1,1,-31.080793,True,0.855
14,0,13-May-2018,1,2,53,Sub14_Trial53_1,1,2,2,10.844137,True,0.855
14,0,13-May-2018,1,2,53,Sub14_Trial53_1,1,3,3,32.735668,True,0.855
14,0,13-May-2018,1,2,53,Sub14_Trial53_1,1,4,4,107.53068,True,0.855
14,0,13-May-2018,1,2,53,Sub14_Trial53_1,1,5,5,-27.993537,True,0.855
14,0,13-May-2018,1,2,53,Sub14_Trial53_1,1,6,6,79.775037,True,0.855
14,0,13-May-2018,1,2,54,Sub14_Trial54_0,0,0,0,24.947198,False,1.122
14,0,13-May-2018,1,2,54,Sub14_Trial54_0,0,1,1,80.812889,False,1.122
14,0,13-May-2018,1,2,54,Sub14_Trial54_0,0,2,2,60.237986,False,1.122
14,0,13-May-2018,1,2,54,Sub14_Trial54_0,0,3,3,-6.605836,False,1.122
14,0,13-May-2018,1,2,54,Sub14_Trial54_0,0,4,4,22.506973,False,1.122
14,0,13-May-2018,1,2,54,Sub14_Trial54_0,0,5,5,39.344059,False,1.122
14,0,13-May-2018,1,2,54,Sub14_Trial54_0,0,6,6,-6.312426,False,1.122
14,0,13-May-2018,1,2,54,Sub14_Trial54_1,1,0,0,132.559273,True,1.122
14,0,13-May-2018,1,2,54,Sub14_Trial54_1,1,1,1,-111.365756,True,1.122
14,0,13-May-2018,1,2,54,Sub14_Trial54_1,1,2,2,-184.830694,True,1.122
14,0,13-May-2018,1,2,54,Sub14_Trial54_1,1,3,3,62.634235,True,1.122
14,0,13-May-2018,1,2,54,Sub14_Trial54_1,1,4,4,76.919088,True,1.122
14,0,13-May-2018,1,2,54,Sub14_Trial54_1,1,5,5,-59.690746,True,1.122
14,0,13-May-2018,1,2,54,Sub14_Trial54_1,1,6,6,-33.490791,True,1.122
14,0,13-May-2018,1,2,55,Sub14_Trial55_0,0,0,0,-97.823829,False,0.68
14,0,13-May-2018,1,2,55,Sub14_Trial55_0,0,1,1,124.352216,False,0.68
14,0,13-May-2018,1,2,55,Sub14_Trial55_0,0,2,2,17.403527,False,0.68
14,0,13-May-2018,1,2,55,Sub14_Trial55_0,0,3,3,-126.557617,False,0.68
14,0,13-May-2018,1,2,55,Sub14_Trial55_0,0,4,4,4.274259,False,0.68
14,0,13-May-2018,1,2,55,Sub14_Trial55_0,0,5,5,5.191935,False,0.68
14,0,13-May-2018,1,2,55,Sub14_Trial55_0,0,6,6,37.483493,False,0.68
14,0,13-May-2018,1,2,55,Sub14_Trial55_1,1,0,0,-33.275539,True,0.68
14,0,13-May-2018,1,2,55,Sub14_Trial55_1,1,1,1,123.632843,True,0.68
14,0,13-May-2018,1,2,55,Sub14_Trial55_1,1,2,2,54.81362,True,0.68
14,0,13-May-2018,1,2,55,Sub14_Trial55_1,1,3,3,60.460688,True,0.68
14,0,13-May-2018,1,2,55,Sub14_Trial55_1,1,4,4,-40.596726,True,0.68
14,0,13-May-2018,1,2,55,Sub14_Trial55_1,1,5,5,126.609542,True,0.68
14,0,13-May-2018,1,2,55,Sub14_Trial55_1,1,6,6,34.274366,True,0.68
14,0,13-May-2018,1,2,56,Sub14_Trial56_0,0,0,0,-81.458092,True,1.165
14,0,13-May-2018,1,2,56,Sub14_Trial56_0,0,1,1,67.91202,True,1.165
14,0,13-May-2018,1,2,56,Sub14_Trial56_0,0,2,2,4.336802,True,1.165
14,0,13-May-2018,1,2,56,Sub14_Trial56_0,0,3,3,26.007563,True,1.165
14,0,13-May-2018,1,2,56,Sub14_Trial56_0,0,4,4,-108.271395,True,1.165
14,0,13-May-2018,1,2,56,Sub14_Trial56_0,0,5,5,66.429207,True,1.165
14,0,13-May-2018,1,2,56,Sub14_Trial56_0,0,6,6,17.41976,True,1.165
14,0,13-May-2018,1,2,56,Sub14_Trial56_1,1,0,0,-9.294777,False,1.165
14,0,13-May-2018,1,2,56,Sub14_Trial56_1,1,1,1,32.372632,False,1.165
14,0,13-May-2018,1,2,56,Sub14_Trial56_1,1,2,2,109.638298,False,1.165
14,0,13-May-2018,1,2,56,Sub14_Trial56_1,1,3,3,-38.872525,False,1.165
14,0,13-May-2018,1,2,56,Sub14_Trial56_1,1,4,4,144.258985,False,1.165
14,0,13-May-2018,1,2,56,Sub14_Trial56_1,1,5,5,-128.50819,False,1.165
14,0,13-May-2018,1,2,56,Sub14_Trial56_1,1,6,6,-106.114542,False,1.165
14,0,13-May-2018,1,2,57,Sub14_Trial57_0,0,0,0,81.165027,True,1.061
14,0,13-May-2018,1,2,57,Sub14_Trial57_0,0,1,1,-52.232208,True,1.061
14,0,13-May-2018,1,2,57,Sub14_Trial57_0,0,2,2,-29.836496,True,1.061
14,0,13-May-2018,1,2,57,Sub14_Trial57_0,0,3,3,-4.344048,True,1.061
14,0,13-May-2018,1,2,57,Sub14_Trial57_0,0,4,4,93.335222,True,1.061
14,0,13-May-2018,1,2,57,Sub14_Trial57_0,0,5,5,-117.173596,True,1.061
14,0,13-May-2018,1,2,57,Sub14_Trial57_0,0,6,6,-147.134092,True,1.061
14,0,13-May-2018,1,2,57,Sub14_Trial57_1,1,0,0,-61.943028,False,1.061
14,0,13-May-2018,1,2,57,Sub14_Trial57_1,1,1,1,-28.817029,False,1.061
14,0,13-May-2018,1,2,57,Sub14_Trial57_1,1,2,2,90.482219,False,1.061
14,0,13-May-2018,1,2,57,Sub14_Trial57_1,1,3,3,34.774981,False,1.061
14,0,13-May-2018,1,2,57,Sub14_Trial57_1,1,4,4,-117.309219,False,1.061
14,0,13-May-2018,1,2,57,Sub14_Trial57_1,1,5,5,-35.294442,False,1.061
14,0,13-May-2018,1,2,57,Sub14_Trial57_1,1,6,6,159.769077,False,1.061
14,0,13-May-2018,1,2,58,Sub14_Trial58_0,0,0,0,30.510812,False,0.774
14,0,13-May-2018,1,2,58,Sub14_Trial58_0,0,1,1,31.974582,False,0.774
14,0,13-May-2018,1,2,58,Sub14_Trial58_0,0,2,2,72.334272,False,0.774
14,0,13-May-2018,1,2,58,Sub14_Trial58_0,0,3,3,193.513469,False,0.774
14,0,13-May-2018,1,2,58,Sub14_Trial58_0,0,4,4,-71.912574,False,0.774
14,0,13-May-2018,1,2,58,Sub14_Trial58_0,0,5,5,1.025522,False,0.774
14,0,13-May-2018,1,2,58,Sub14_Trial58_0,0,6,6,-98.452511,False,0.774
14,0,13-May-2018,1,2,58,Sub14_Trial58_1,1,0,0,78.71645,True,0.774
14,0,13-May-2018,1,2,58,Sub14_Trial58_1,1,1,1,-145.69804,True,0.774
14,0,13-May-2018,1,2,58,Sub14_Trial58_1,1,2,2,-41.385383,True,0.774
14,0,13-May-2018,1,2,58,Sub14_Trial58_1,1,3,3,-82.603262,True,0.774
14,0,13-May-2018,1,2,58,Sub14_Trial58_1,1,4,4,-81.571926,True,0.774
14,0,13-May-2018,1,2,58,Sub14_Trial58_1,1,5,5,126.633642,True,0.774
14,0,13-May-2018,1,2,58,Sub14_Trial58_1,1,6,6,61.818379,True,0.774
14,0,13-May-2018,1,2,59,Sub14_Trial59_0,0,0,0,-89.8053,False,0.72
14,0,13-May-2018,1,2,59,Sub14_Trial59_0,0,1,1,-152.441069,False,0.72
14,0,13-May-2018,1,2,59,Sub14_Trial59_0,0,2,2,-98.346512,False,0.72
14,0,13-May-2018,1,2,59,Sub14_Trial59_0,0,3,3,-51.820216,False,0.72
14,0,13-May-2018,1,2,59,Sub14_Trial59_0,0,4,4,-14.741878,False,0.72
14,0,13-May-2018,1,2,59,Sub14_Trial59_0,0,5,5,-101.340559,False,0.72
14,0,13-May-2018,1,2,59,Sub14_Trial59_0,0,6,6,72.824528,False,0.72
14,0,13-May-2018,1,2,59,Sub14_Trial59_1,1,0,0,1.130036,True,0.72
14,0,13-May-2018,1,2,59,Sub14_Trial59_1,1,1,1,41.319022,True,0.72
14,0,13-May-2018,1,2,59,Sub14_Trial59_1,1,2,2,-111.333905,True,0.72
14,0,13-May-2018,1,2,59,Sub14_Trial59_1,1,3,3,17.776775,True,0.72
14,0,13-May-2018,1,2,59,Sub14_Trial59_1,1,4,4,86.809619,True,0.72
14,0,13-May-2018,1,2,59,Sub14_Trial59_1,1,5,5,-30.92969,True,0.72
14,0,13-May-2018,1,2,59,Sub14_Trial59_1,1,6,6,92.622253,True,0.72
14,0,13-May-2018,1,2,60,Sub14_Trial60_0,0,0,0,-73.519478,True,0.817
14,0,13-May-2018,1,2,60,Sub14_Trial60_0,0,1,1,57.801149,True,0.817
14,0,13-May-2018,1,2,60,Sub14_Trial60_0,0,2,2,-20.065418,True,0.817
14,0,13-May-2018,1,2,60,Sub14_Trial60_0,0,3,3,36.15251,True,0.817
14,0,13-May-2018,1,2,60,Sub14_Trial60_0,0,4,4,-48.24228,True,0.817
14,0,13-May-2018,1,2,60,Sub14_Trial60_0,0,5,5,-17.214625,True,0.817
14,0,13-May-2018,1,2,60,Sub14_Trial60_0,0,6,6,107.174689,True,0.817
14,0,13-May-2018,1,2,60,Sub14_Trial60_1,1,0,0,35.133311,False,0.817
14,0,13-May-2018,1,2,60,Sub14_Trial60_1,1,1,1,6.580217,False,0.817
14,0,13-May-2018,1,2,60,Sub14_Trial60_1,1,2,2,-12.385501,False,0.817
14,0,13-May-2018,1,2,60,Sub14_Trial60_1,1,3,3,176.091173,False,0.817
14,0,13-May-2018,1,2,60,Sub14_Trial60_1,1,4,4,9.891116,False,0.817
14,0,13-May-2018,1,2,60,Sub14_Trial60_1,1,5,5,-85.104864,False,0.817
14,0,13-May-2018,1,2,60,Sub14_Trial60_1,1,6,6,95.512796,False,0.817
14,0,13-May-2018,1,2,61,Sub14_Trial61_0,0,0,0,1.317514,False,0.428
14,0,13-May-2018,1,2,61,Sub14_Trial61_0,0,1,1,120.846102,False,0.428
14,0,13-May-2018,1,2,61,Sub14_Trial61_0,0,2,2,-18.521437,False,0.428
14,0,13-May-2018,1,2,61,Sub14_Trial61_0,0,3,3,-3.141429,False,0.428
14,0,13-May-2018,1,2,61,Sub14_Trial61_0,0,4,4,37.677812,False,0.428
14,0,13-May-2018,1,2,61,Sub14_Trial61_0,0,5,5,-12.177848,False,0.428
14,0,13-May-2018,1,2,61,Sub14_Trial61_0,0,6,6,-99.489994,False,0.428
14,0,13-May-2018,1,2,61,Sub14_Trial61_1,1,0,0,-81.812425,True,0.428
14,0,13-May-2018,1,2,61,Sub14_Trial61_1,1,1,1,6.979357,True,0.428
14,0,13-May-2018,1,2,61,Sub14_Trial61_1,1,2,2,166.867154,True,0.428
14,0,13-May-2018,1,2,61,Sub14_Trial61_1,1,3,3,25.18797,True,0.428
14,0,13-May-2018,1,2,61,Sub14_Trial61_1,1,4,4,86.804108,True,0.428
14,0,13-May-2018,1,2,61,Sub14_Trial61_1,1,5,5,3.310707,True,0.428
14,0,13-May-2018,1,2,61,Sub14_Trial61_1,1,6,6,3.864031,True,0.428
14,0,13-May-2018,1,2,62,Sub14_Trial62_0,0,0,0,-89.991606,True,0.967
14,0,13-May-2018,1,2,62,Sub14_Trial62_0,0,1,1,-74.534765,True,0.967
14,0,13-May-2018,1,2,62,Sub14_Trial62_0,0,2,2,-96.494154,True,0.967
14,0,13-May-2018,1,2,62,Sub14_Trial62_0,0,3,3,-15.894754,True,0.967
14,0,13-May-2018,1,2,62,Sub14_Trial62_0,0,4,4,-68.623382,True,0.967
14,0,13-May-2018,1,2,62,Sub14_Trial62_0,0,5,5,-194.360369,True,0.967
14,0,13-May-2018,1,2,62,Sub14_Trial62_0,0,6,6,-35.440868,True,0.967
14,0,13-May-2018,1,2,62,Sub14_Trial62_1,1,0,0,-54.904649,False,0.967
14,0,13-May-2018,1,2,62,Sub14_Trial62_1,1,1,1,-12.243593,False,0.967
14,0,13-May-2018,1,2,62,Sub14_Trial62_1,1,2,2,54.487147,False,0.967
14,0,13-May-2018,1,2,62,Sub14_Trial62_1,1,3,3,66.371466,False,0.967
14,0,13-May-2018,1,2,62,Sub14_Trial62_1,1,4,4,-56.258585,False,0.967
14,0,13-May-2018,1,2,62,Sub14_Trial62_1,1,5,5,-146.615431,False,0.967
14,0,13-May-2018,1,2,62,Sub14_Trial62_1,1,6,6,5.9908,False,0.967
14,0,13-May-2018,1,2,63,Sub14_Trial63_0,0,0,0,-29.927249,False,0.598
14,0,13-May-2018,1,2,63,Sub14_Trial63_0,0,1,1,-65.284362,False,0.598
14,0,13-May-2018,1,2,63,Sub14_Trial63_0,0,2,2,-81.201508,False,0.598
14,0,13-May-2018,1,2,63,Sub14_Trial63_0,0,3,3,57.608582,False,0.598
14,0,13-May-2018,1,2,63,Sub14_Trial63_0,0,4,4,-24.892561,False,0.598
14,0,13-May-2018,1,2,63,Sub14_Trial63_0,0,5,5,-26.942398,False,0.598
14,0,13-May-2018,1,2,63,Sub14_Trial63_0,0,6,6,-18.467196,False,0.598
14,0,13-May-2018,1,2,63,Sub14_Trial63_1,1,0,0,80.074101,True,0.598
14,0,13-May-2018,1,2,63,Sub14_Trial63_1,1,1,1,-22.149611,True,0.598
14,0,13-May-2018,1,2,63,Sub14_Trial63_1,1,2,2,130.400917,True,0.598
14,0,13-May-2018,1,2,63,Sub14_Trial63_1,1,3,3,-37.051012,True,0.598
14,0,13-May-2018,1,2,63,Sub14_Trial63_1,1,4,4,11.652169,True,0.598
14,0,13-May-2018,1,2,63,Sub14_Trial63_1,1,5,5,60.655741,True,0.598
14,0,13-May-2018,1,2,63,Sub14_Trial63_1,1,6,6,-30.363415,True,0.598
14,0,13-May-2018,1,2,64,Sub14_Trial64_0,0,0,0,116.323076,True,0.762
14,0,13-May-2018,1,2,64,Sub14_Trial64_0,0,1,1,-16.686924,True,0.762
14,0,13-May-2018,1,2,64,Sub14_Trial64_0,0,2,2,-132.597837,True,0.762
14,0,13-May-2018,1,2,64,Sub14_Trial64_0,0,3,3,32.757492,True,0.762
14,0,13-May-2018,1,2,64,Sub14_Trial64_0,0,4,4,-8.113886,True,0.762
14,0,13-May-2018,1,2,64,Sub14_Trial64_0,0,5,5,-7.855283,True,0.762
14,0,13-May-2018,1,2,64,Sub14_Trial64_0,0,6,6,-66.123018,True,0.762
14,0,13-May-2018,1,2,64,Sub14_Trial64_1,1,0,0,169.011819,False,0.762
14,0,13-May-2018,1,2,64,Sub14_Trial64_1,1,1,1,-83.9668,False,0.762
14,0,13-May-2018,1,2,64,Sub14_Trial64_1,1,2,2,-77.465408,False,0.762
14,0,13-May-2018,1,2,64,Sub14_Trial64_1,1,3,3,45.393474,False,0.762
14,0,13-May-2018,1,2,64,Sub14_Trial64_1,1,4,4,28.676456,False,0.762
14,0,13-May-2018,1,2,64,Sub14_Trial64_1,1,5,5,-26.850645,False,0.762
14,0,13-May-2018,1,2,64,Sub14_Trial64_1,1,6,6,-99.930396,False,0.762
14,0,13-May-2018,1,2,65,Sub14_Trial65_0,0,0,0,131.214616,True,0.858
14,0,13-May-2018,1,2,65,Sub14_Trial65_0,0,1,1,-97.944388,True,0.858
14,0,13-May-2018,1,2,65,Sub14_Trial65_0,0,2,2,28.102201,True,0.858
14,0,13-May-2018,1,2,65,Sub14_Trial65_0,0,3,3,-20.438711,True,0.858
14,0,13-May-2018,1,2,65,Sub14_Trial65_0,0,4,4,24.526192,True,0.858
14,0,13-May-2018,1,2,65,Sub14_Trial65_0,0,5,5,-1.265343,True,0.858
14,0,13-May-2018,1,2,65,Sub14_Trial65_0,0,6,6,-15.752179,True,0.858
14,0,13-May-2018,1,2,65,Sub14_Trial65_1,1,0,0,6.985537,False,0.858
14,0,13-May-2018,1,2,65,Sub14_Trial65_1,1,1,1,57.313431,False,0.858
14,0,13-May-2018,1,2,65,Sub14_Trial65_1,1,2,2,31.937935,False,0.858
14,0,13-May-2018,1,2,65,Sub14_Trial65_1,1,3,3,-11.080525,False,0.858
14,0,13-May-2018,1,2,65,Sub14_Trial65_1,1,4,4,18.106061,False,0.858
14,0,13-May-2018,1,2,65,Sub14_Trial65_1,1,5,5,-120.275543,False,0.858
14,0,13-May-2018,1,2,65,Sub14_Trial65_1,1,6,6,2.869717,False,0.858
14,0,13-May-2018,1,2,66,Sub14_Trial66_0,0,0,0,3.475531,False,1.005
14,0,13-May-2018,1,2,66,Sub14_Trial66_0,0,1,1,-15.16483,False,1.005
14,0,13-May-2018,1,2,66,Sub14_Trial66_0,0,2,2,19.515702,False,1.005
14,0,13-May-2018,1,2,66,Sub14_Trial66_0,0,3,3,-39.603077,False,1.005
14,0,13-May-2018,1,2,66,Sub14_Trial66_0,0,4,4,33.719552,False,1.005
14,0,13-May-2018,1,2,66,Sub14_Trial66_0,0,5,5,-119.497805,False,1.005
14,0,13-May-2018,1,2,66,Sub14_Trial66_0,0,6,6,35.670651,False,1.005
14,0,13-May-2018,1,2,66,Sub14_Trial66_1,1,0,0,20.915552,True,1.005
14,0,13-May-2018,1,2,66,Sub14_Trial66_1,1,1,1,177.728837,True,1.005
14,0,13-May-2018,1,2,66,Sub14_Trial66_1,1,2,2,-22.233351,True,1.005
14,0,13-May-2018,1,2,66,Sub14_Trial66_1,1,3,3,-1.860823,True,1.005
14,0,13-May-2018,1,2,66,Sub14_Trial66_1,1,4,4,101.743977,True,1.005
14,0,13-May-2018,1,2,66,Sub14_Trial66_1,1,5,5,73.960455,True,1.005
14,0,13-May-2018,1,2,66,Sub14_Trial66_1,1,6,6,113.399352,True,1.005
14,0,13-May-2018,1,2,67,Sub14_Trial67_0,0,0,0,139.513819,True,0.822
14,0,13-May-2018,1,2,67,Sub14_Trial67_0,0,1,1,-14.535218,True,0.822
14,0,13-May-2018,1,2,67,Sub14_Trial67_0,0,2,2,9.163607,True,0.822
14,0,13-May-2018,1,2,67,Sub14_Trial67_0,0,3,3,-157.257939,True,0.822
14,0,13-May-2018,1,2,67,Sub14_Trial67_0,0,4,4,-69.242938,True,0.822
14,0,13-May-2018,1,2,67,Sub14_Trial67_0,0,5,5,91.005329,True,0.822
14,0,13-May-2018,1,2,67,Sub14_Trial67_0,0,6,6,58.430092,True,0.822
14,0,13-May-2018,1,2,67,Sub14_Trial67_1,1,0,0,115.087613,False,0.822
14,0,13-May-2018,1,2,67,Sub14_Trial67_1,1,1,1,-130.935408,False,0.822
14,0,13-May-2018,1,2,67,Sub14_Trial67_1,1,2,2,-87.315531,False,0.822
14,0,13-May-2018,1,2,67,Sub14_Trial67_1,1,3,3,-126.418461,False,0.822
14,0,13-May-2018,1,2,67,Sub14_Trial67_1,1,4,4,23.104264,False,0.822
14,0,13-May-2018,1,2,67,Sub14_Trial67_1,1,5,5,67.929884,False,0.822
14,0,13-May-2018,1,2,67,Sub14_Trial67_1,1,6,6,-66.842499,False,0.822
14,0,13-May-2018,1,2,68,Sub14_Trial68_0,0,0,0,-19.118959,False,0.369
14,0,13-May-2018,1,2,68,Sub14_Trial68_0,0,1,1,-60.699014,False,0.369
14,0,13-May-2018,1,2,68,Sub14_Trial68_0,0,2,2,3.210213,False,0.369
14,0,13-May-2018,1,2,68,Sub14_Trial68_0,0,3,3,164.374784,False,0.369
14,0,13-May-2018,1,2,68,Sub14_Trial68_0,0,4,4,45.933778,False,0.369
14,0,13-May-2018,1,2,68,Sub14_Trial68_0,0,5,5,27.936336,False,0.369
14,0,13-May-2018,1,2,68,Sub14_Trial68_0,0,6,6,-11.621289,False,0.369
14,0,13-May-2018,1,2,68,Sub14_Trial68_1,1,0,0,-108.506875,True,0.369
14,0,13-May-2018,1,2,68,Sub14_Trial68_1,1,1,1,36.641699,True,0.369
14,0,13-May-2018,1,2,68,Sub14_Trial68_1,1,2,2,-106.114605,True,0.369
14,0,13-May-2018,1,2,68,Sub14_Trial68_1,1,3,3,-57.570577,True,0.369
14,0,13-May-2018,1,2,68,Sub14_Trial68_1,1,4,4,58.166694,True,0.369
14,0,13-May-2018,1,2,68,Sub14_Trial68_1,1,5,5,191.060356,True,0.369
14,0,13-May-2018,1,2,68,Sub14_Trial68_1,1,6,6,99.874704,True,0.369
14,0,13-May-2018,1,2,69,Sub14_Trial69_0,0,0,0,-95.591777,True,1.023
14,0,13-May-2018,1,2,69,Sub14_Trial69_0,0,1,1,46.522015,True,1.023
14,0,13-May-2018,1,2,69,Sub14_Trial69_0,0,2,2,139.356619,True,1.023
14,0,13-May-2018,1,2,69,Sub14_Trial69_0,0,3,3,-147.34961,True,1.023
14,0,13-May-2018,1,2,69,Sub14_Trial69_0,0,4,4,-48.137665,True,1.023
14,0,13-May-2018,1,2,69,Sub14_Trial69_0,0,5,5,10.437819,True,1.023
14,0,13-May-2018,1,2,69,Sub14_Trial69_0,0,6,6,10.734305,True,1.023
14,0,13-May-2018,1,2,69,Sub14_Trial69_1,1,0,0,-45.891434,False,1.023
14,0,13-May-2018,1,2,69,Sub14_Trial69_1,1,1,1,105.47303,False,1.023
14,0,13-May-2018,1,2,69,Sub14_Trial69_1,1,2,2,1.890802,False,1.023
14,0,13-May-2018,1,2,69,Sub14_Trial69_1,1,3,3,13.033596,False,1.023
14,0,13-May-2018,1,2,69,Sub14_Trial69_1,1,4,4,-17.016096,False,1.023
14,0,13-May-2018,1,2,69,Sub14_Trial69_1,1,5,5,-12.802905,False,1.023
14,0,13-May-2018,1,2,69,Sub14_Trial69_1,1,6,6,-12.048492,False,1.023
14,0,13-May-2018,1,2,70,Sub14_Trial70_0,0,0,0,42.030984,False,0.389
14,0,13-May-2018,1,2,70,Sub14_Trial70_0,0,1,1,-30.696007,False,0.389
14,0,13-May-2018,1,2,70,Sub14_Trial70_0,0,2,2,-93.13189,False,0.389
14,0,13-May-2018,1,2,70,Sub14_Trial70_0,0,3,3,-96.465703,False,0.389
14,0,13-May-2018,1,2,70,Sub14_Trial70_0,0,4,4,37.762359,False,0.389
14,0,13-May-2018,1,2,70,Sub14_Trial70_0,0,5,5,-19.126917,False,0.389
14,0,13-May-2018,1,2,70,Sub14_Trial70_0,0,6,6,49.502117,False,0.389
14,0,13-May-2018,1,2,70,Sub14_Trial70_1,1,0,0,-26.60776,True,0.389
14,0,13-May-2018,1,2,70,Sub14_Trial70_1,1,1,1,-34.147702,True,0.389
14,0,13-May-2018,1,2,70,Sub14_Trial70_1,1,2,2,86.352043,True,0.389
14,0,13-May-2018,1,2,70,Sub14_Trial70_1,1,3,3,-43.523271,True,0.389
14,0,13-May-2018,1,2,70,Sub14_Trial70_1,1,4,4,23.451601,True,0.389
14,0,13-May-2018,1,2,70,Sub14_Trial70_1,1,5,5,67.051647,True,0.389
14,0,13-May-2018,1,2,70,Sub14_Trial70_1,1,6,6,-154.628195,True,0.389
14,0,13-May-2018,1,2,71,Sub14_Trial71_0,0,0,0,-52.971139,False,0.396
14,0,13-May-2018,1,2,71,Sub14_Trial71_0,0,1,1,-56.259133,False,0.396
14,0,13-May-2018,1,2,71,Sub14_Trial71_0,0,2,2,-20.207185,False,0.396
14,0,13-May-2018,1,2,71,Sub14_Trial71_0,0,3,3,7.073737,False,0.396
14,0,13-May-2018,1,2,71,Sub14_Trial71_0,0,4,4,105.834952,False,0.396
14,0,13-May-2018,1,2,71,Sub14_Trial71_0,0,5,5,-53.872498,False,0.396
14,0,13-May-2018,1,2,71,Sub14_Trial71_0,0,6,6,171.340602,False,0.396
14,0,13-May-2018,1,2,71,Sub14_Trial71_1,1,0,0,106.985384,True,0.396
14,0,13-May-2018,1,2,71,Sub14_Trial71_1,1,1,1,27.63327,True,0.396
14,0,13-May-2018,1,2,71,Sub14_Trial71_1,1,2,2,31.645944,True,0.396
14,0,13-May-2018,1,2,71,Sub14_Trial71_1,1,3,3,23.46379,True,0.396
14,0,13-May-2018,1,2,71,Sub14_Trial71_1,1,4,4,22.275951,True,0.396
14,0,13-May-2018,1,2,71,Sub14_Trial71_1,1,5,5,24.36522,True,0.396
14,0,13-May-2018,1,2,71,Sub14_Trial71_1,1,6,6,92.690367,True,0.396
14,0,13-May-2018,1,2,72,Sub14_Trial72_0,0,0,0,54.758537,True,0.724
14,0,13-May-2018,1,2,72,Sub14_Trial72_0,0,1,1,44.467437,True,0.724
14,0,13-May-2018,1,2,72,Sub14_Trial72_0,0,2,2,-51.30866,True,0.724
14,0,13-May-2018,1,2,72,Sub14_Trial72_0,0,3,3,-54.512354,True,0.724
14,0,13-May-2018,1,2,72,Sub14_Trial72_0,0,4,4,10.478631,True,0.724
14,0,13-May-2018,1,2,72,Sub14_Trial72_0,0,5,5,-54.541546,True,0.724
14,0,13-May-2018,1,2,72,Sub14_Trial72_0,0,6,6,161.559514,True,0.724
14,0,13-May-2018,1,2,72,Sub14_Trial72_1,1,0,0,-47.765795,False,0.724
14,0,13-May-2018,1,2,72,Sub14_Trial72_1,1,1,1,-188.396382,False,0.724
14,0,13-May-2018,1,2,72,Sub14_Trial72_1,1,2,2,-71.733735,False,0.724
14,0,13-May-2018,1,2,72,Sub14_Trial72_1,1,3,3,-78.865684,False,0.724
14,0,13-May-2018,1,2,72,Sub14_Trial72_1,1,4,4,65.325459,False,0.724
14,0,13-May-2018,1,2,72,Sub14_Trial72_1,1,5,5,59.075269,False,0.724
14,0,13-May-2018,1,2,72,Sub14_Trial72_1,1,6,6,-64.179912,False,0.724
14,0,13-May-2018,1,2,73,Sub14_Trial73_0,0,0,0,140.34048,True,0.675
14,0,13-May-2018,1,2,73,Sub14_Trial73_0,0,1,1,114.671497,True,0.675
14,0,13-May-2018,1,2,73,Sub14_Trial73_0,0,2,2,-17.954317,True,0.675
14,0,13-May-2018,1,2,73,Sub14_Trial73_0,0,3,3,-62.852363,True,0.675
14,0,13-May-2018,1,2,73,Sub14_Trial73_0,0,4,4,22.445559,True,0.675
14,0,13-May-2018,1,2,73,Sub14_Trial73_0,0,5,5,-82.669106,True,0.675
14,0,13-May-2018,1,2,73,Sub14_Trial73_0,0,6,6,11.239557,True,0.675
14,0,13-May-2018,1,2,73,Sub14_Trial73_1,1,0,0,-38.849371,False,0.675
14,0,13-May-2018,1,2,73,Sub14_Trial73_1,1,1,1,-197.600294,False,0.675
14,0,13-May-2018,1,2,73,Sub14_Trial73_1,1,2,2,-35.353035,False,0.675
14,0,13-May-2018,1,2,73,Sub14_Trial73_1,1,3,3,126.861322,False,0.675
14,0,13-May-2018,1,2,73,Sub14_Trial73_1,1,4,4,-33.881054,False,0.675
14,0,13-May-2018,1,2,73,Sub14_Trial73_1,1,5,5,-80.079061,False,0.675
14,0,13-May-2018,1,2,73,Sub14_Trial73_1,1,6,6,-56.861105,False,0.675
14,0,13-May-2018,1,2,74,Sub14_Trial74_0,0,0,0,135.802032,False,0.667
14,0,13-May-2018,1,2,74,Sub14_Trial74_0,0,1,1,143.142475,False,0.667
14,0,13-May-2018,1,2,74,Sub14_Trial74_0,0,2,2,-96.005808,False,0.667
14,0,13-May-2018,1,2,74,Sub14_Trial74_0,0,3,3,-27.178338,False,0.667
14,0,13-May-2018,1,2,74,Sub14_Trial74_0,0,4,4,-67.467347,False,0.667
14,0,13-May-2018,1,2,74,Sub14_Trial74_0,0,5,5,32.156299,False,0.667
14,0,13-May-2018,1,2,74,Sub14_Trial74_0,0,6,6,131.758109,False,0.667
14,0,13-May-2018,1,2,74,Sub14_Trial74_1,1,0,0,-101.338949,True,0.667
14,0,13-May-2018,1,2,74,Sub14_Trial74_1,1,1,1,84.085272,True,0.667
14,0,13-May-2018,1,2,74,Sub14_Trial74_1,1,2,2,14.607336,True,0.667
14,0,13-May-2018,1,2,74,Sub14_Trial74_1,1,3,3,-89.915086,True,0.667
14,0,13-May-2018,1,2,74,Sub14_Trial74_1,1,4,4,68.729104,True,0.667
14,0,13-May-2018,1,2,74,Sub14_Trial74_1,1,5,5,165.854331,True,0.667
14,0,13-May-2018,1,2,74,Sub14_Trial74_1,1,6,6,-24.600763,True,0.667
14,0,13-May-2018,1,2,75,Sub14_Trial75_0,0,0,0,164.21254,True,0.502
14,0,13-May-2018,1,2,75,Sub14_Trial75_0,0,1,1,-51.577555,True,0.502
14,0,13-May-2018,1,2,75,Sub14_Trial75_0,0,2,2,86.281161,True,0.502
14,0,13-May-2018,1,2,75,Sub14_Trial75_0,0,3,3,-76.483391,True,0.502
14,0,13-May-2018,1,2,75,Sub14_Trial75_0,0,4,4,-17.94454,True,0.502
14,0,13-May-2018,1,2,75,Sub14_Trial75_0,0,5,5,68.878362,True,0.502
14,0,13-May-2018,1,2,75,Sub14_Trial75_0,0,6,6,128.359163,True,0.502
14,0,13-May-2018,1,2,75,Sub14_Trial75_1,1,0,0,-32.464677,False,0.502
14,0,13-May-2018,1,2,75,Sub14_Trial75_1,1,1,1,24.889882,False,0.502
14,0,13-May-2018,1,2,75,Sub14_Trial75_1,1,2,2,-64.436956,False,0.502
14,0,13-May-2018,1,2,75,Sub14_Trial75_1,1,3,3,-161.892228,False,0.502
14,0,13-May-2018,1,2,75,Sub14_Trial75_1,1,4,4,-3.649093,False,0.502
14,0,13-May-2018,1,2,75,Sub14_Trial75_1,1,5,5,63.26126,False,0.502
14,0,13-May-2018,1,2,75,Sub14_Trial75_1,1,6,6,8.70248,False,0.502
14,0,13-May-2018,1,2,76,Sub14_Trial76_0,0,0,0,18.15611,True,0.786
14,0,13-May-2018,1,2,76,Sub14_Trial76_0,0,1,1,32.341464,True,0.786
14,0,13-May-2018,1,2,76,Sub14_Trial76_0,0,2,2,31.667605,True,0.786
14,0,13-May-2018,1,2,76,Sub14_Trial76_0,0,3,3,11.273385,True,0.786
14,0,13-May-2018,1,2,76,Sub14_Trial76_0,0,4,4,107.5058,True,0.786
14,0,13-May-2018,1,2,76,Sub14_Trial76_0,0,5,5,35.198836,True,0.786
14,0,13-May-2018,1,2,76,Sub14_Trial76_0,0,6,6,-29.531068,True,0.786
14,0,13-May-2018,1,2,76,Sub14_Trial76_1,1,0,0,24.43382,False,0.786
14,0,13-May-2018,1,2,76,Sub14_Trial76_1,1,1,1,80.820804,False,0.786
14,0,13-May-2018,1,2,76,Sub14_Trial76_1,1,2,2,-10.820462,False,0.786
14,0,13-May-2018,1,2,76,Sub14_Trial76_1,1,3,3,5.022835,False,0.786
14,0,13-May-2018,1,2,76,Sub14_Trial76_1,1,4,4,75.186023,False,0.786
14,0,13-May-2018,1,2,76,Sub14_Trial76_1,1,5,5,4.846151,False,0.786
14,0,13-May-2018,1,2,76,Sub14_Trial76_1,1,6,6,92.665501,False,0.786
14,0,13-May-2018,1,2,77,Sub14_Trial77_0,0,0,0,-87.999917,False,0.911
14,0,13-May-2018,1,2,77,Sub14_Trial77_0,0,1,1,59.643542,False,0.911
14,0,13-May-2018,1,2,77,Sub14_Trial77_0,0,2,2,132.425834,False,0.911
14,0,13-May-2018,1,2,77,Sub14_Trial77_0,0,3,3,17.847972,False,0.911
14,0,13-May-2018,1,2,77,Sub14_Trial77_0,0,4,4,5.623381,False,0.911
14,0,13-May-2018,1,2,77,Sub14_Trial77_0,0,5,5,124.828465,False,0.911
14,0,13-May-2018,1,2,77,Sub14_Trial77_0,0,6,6,-142.361753,False,0.911
14,0,13-May-2018,1,2,77,Sub14_Trial77_1,1,0,0,-26.673026,True,0.911
14,0,13-May-2018,1,2,77,Sub14_Trial77_1,1,1,1,-105.005146,True,0.911
14,0,13-May-2018,1,2,77,Sub14_Trial77_1,1,2,2,104.371447,True,0.911
14,0,13-May-2018,1,2,77,Sub14_Trial77_1,1,3,3,-84.385441,True,0.911
14,0,13-May-2018,1,2,77,Sub14_Trial77_1,1,4,4,22.559426,True,0.911
14,0,13-May-2018,1,2,77,Sub14_Trial77_1,1,5,5,44.134179,True,0.911
14,0,13-May-2018,1,2,77,Sub14_Trial77_1,1,6,6,16.575481,True,0.911
14,0,13-May-2018,1,2,78,Sub14_Trial78_0,0,0,0,95.287909,False,1.009
14,0,13-May-2018,1,2,78,Sub14_Trial78_0,0,1,1,66.664062,False,1.009
14,0,13-May-2018,1,2,78,Sub14_Trial78_0,0,2,2,-105.110187,False,1.009
14,0,13-May-2018,1,2,78,Sub14_Trial78_0,0,3,3,-31.619524,False,1.009
14,0,13-May-2018,1,2,78,Sub14_Trial78_0,0,4,4,17.436906,False,1.009
14,0,13-May-2018,1,2,78,Sub14_Trial78_0,0,5,5,47.233044,False,1.009
14,0,13-May-2018,1,2,78,Sub14_Trial78_0,0,6,6,38.679575,False,1.009
14,0,13-May-2018,1,2,78,Sub14_Trial78_1,1,0,0,139.480212,True,1.009
14,0,13-May-2018,1,2,78,Sub14_Trial78_1,1,1,1,122.326195,True,1.009
14,0,13-May-2018,1,2,78,Sub14_Trial78_1,1,2,2,98.84038,True,1.009
14,0,13-May-2018,1,2,78,Sub14_Trial78_1,1,3,3,169.193614,True,1.009
14,0,13-May-2018,1,2,78,Sub14_Trial78_1,1,4,4,-22.427403,True,1.009
14,0,13-May-2018,1,2,78,Sub14_Trial78_1,1,5,5,73.100637,True,1.009
14,0,13-May-2018,1,2,78,Sub14_Trial78_1,1,6,6,-14.762681,True,1.009
14,0,13-May-2018,1,2,79,Sub14_Trial79_0,0,0,0,115.466748,True,0.876
14,0,13-May-2018,1,2,79,Sub14_Trial79_0,0,1,1,44.442749,True,0.876
14,0,13-May-2018,1,2,79,Sub14_Trial79_0,0,2,2,-131.545953,True,0.876
14,0,13-May-2018,1,2,79,Sub14_Trial79_0,0,3,3,92.499388,True,0.876
14,0,13-May-2018,1,2,79,Sub14_Trial79_0,0,4,4,128.654652,True,0.876
14,0,13-May-2018,1,2,79,Sub14_Trial79_0,0,5,5,-5.658159,True,0.876
14,0,13-May-2018,1,2,79,Sub14_Trial79_0,0,6,6,5.269353,True,0.876
14,0,13-May-2018,1,2,79,Sub14_Trial79_1,1,0,0,8.366871,False,0.876
14,0,13-May-2018,1,2,79,Sub14_Trial79_1,1,1,1,110.000777,False,0.876
14,0,13-May-2018,1,2,79,Sub14_Trial79_1,1,2,2,0.965932,False,0.876
14,0,13-May-2018,1,2,79,Sub14_Trial79_1,1,3,3,102.829754,False,0.876
14,0,13-May-2018,1,2,79,Sub14_Trial79_1,1,4,4,-109.332792,False,0.876
14,0,13-May-2018,1,2,79,Sub14_Trial79_1,1,5,5,-82.497238,False,0.876
14,0,13-May-2018,1,2,79,Sub14_Trial79_1,1,6,6,25.160089,False,0.876
14,0,13-May-2018,1,2,80,Sub14_Trial80_0,0,0,0,-89.772895,True,0.763
14,0,13-May-2018,1,2,80,Sub14_Trial80_0,0,1,1,42.372357,True,0.763
14,0,13-May-2018,1,2,80,Sub14_Trial80_0,0,2,2,-33.30394,True,0.763
14,0,13-May-2018,1,2,80,Sub14_Trial80_0,0,3,3,105.311089,True,0.763
14,0,13-May-2018,1,2,80,Sub14_Trial80_0,0,4,4,-131.911811,True,0.763
14,0,13-May-2018,1,2,80,Sub14_Trial80_0,0,5,5,-143.508753,True,0.763
14,0,13-May-2018,1,2,80,Sub14_Trial80_0,0,6,6,-6.832263,True,0.763
14,0,13-May-2018,1,2,80,Sub14_Trial80_1,1,0,0,-9.948732,False,0.763
14,0,13-May-2018,1,2,80,Sub14_Trial80_1,1,1,1,145.998649,False,0.763
14,0,13-May-2018,1,2,80,Sub14_Trial80_1,1,2,2,40.80286,False,0.763
14,0,13-May-2018,1,2,80,Sub14_Trial80_1,1,3,3,-79.700858,False,0.763
14,0,13-May-2018,1,2,80,Sub14_Trial80_1,1,4,4,81.897124,False,0.763
14,0,13-May-2018,1,2,80,Sub14_Trial80_1,1,5,5,20.383541,False,0.763
14,0,13-May-2018,1,2,80,Sub14_Trial80_1,1,6,6,58.959259,False,0.763
14,0,13-May-2018,1,2,81,Sub14_Trial81_0,0,0,0,145.41998,True,0.715
14,0,13-May-2018,1,2,81,Sub14_Trial81_0,0,1,1,-182.651242,True,0.715
14,0,13-May-2018,1,2,81,Sub14_Trial81_0,0,2,2,142.834151,True,0.715
14,0,13-May-2018,1,2,81,Sub14_Trial81_0,0,3,3,-20.359214,True,0.715
14,0,13-May-2018,1,2,81,Sub14_Trial81_0,0,4,4,48.085086,True,0.715
14,0,13-May-2018,1,2,81,Sub14_Trial81_0,0,5,5,2.094026,True,0.715
14,0,13-May-2018,1,2,81,Sub14_Trial81_0,0,6,6,-73.326727,True,0.715
14,0,13-May-2018,1,2,81,Sub14_Trial81_1,1,0,0,69.319196,False,0.715
14,0,13-May-2018,1,2,81,Sub14_Trial81_1,1,1,1,5.708665,False,0.715
14,0,13-May-2018,1,2,81,Sub14_Trial81_1,1,2,2,30.908363,False,0.715
14,0,13-May-2018,1,2,81,Sub14_Trial81_1,1,3,3,-9.271114,False,0.715
14,0,13-May-2018,1,2,81,Sub14_Trial81_1,1,4,4,83.603798,False,0.715
14,0,13-May-2018,1,2,81,Sub14_Trial81_1,1,5,5,-112.774449,False,0.715
14,0,13-May-2018,1,2,81,Sub14_Trial81_1,1,6,6,90.224502,False,0.715
14,0,13-May-2018,1,2,82,Sub14_Trial82_0,0,0,0,-80.668035,False,0.955
14,0,13-May-2018,1,2,82,Sub14_Trial82_0,0,1,1,-6.773317,False,0.955
14,0,13-May-2018,1,2,82,Sub14_Trial82_0,0,2,2,35.419573,False,0.955
14,0,13-May-2018,1,2,82,Sub14_Trial82_0,0,3,3,38.200765,False,0.955
14,0,13-May-2018,1,2,82,Sub14_Trial82_0,0,4,4,-120.811882,False,0.955
14,0,13-May-2018,1,2,82,Sub14_Trial82_0,0,5,5,-76.013084,False,0.955
14,0,13-May-2018,1,2,82,Sub14_Trial82_0,0,6,6,13.437547,False,0.955
14,0,13-May-2018,1,2,82,Sub14_Trial82_1,1,0,0,-71.285817,True,0.955
14,0,13-May-2018,1,2,82,Sub14_Trial82_1,1,1,1,78.087734,True,0.955
14,0,13-May-2018,1,2,82,Sub14_Trial82_1,1,2,2,8.01153,True,0.955
14,0,13-May-2018,1,2,82,Sub14_Trial82_1,1,3,3,91.004509,True,0.955
14,0,13-May-2018,1,2,82,Sub14_Trial82_1,1,4,4,34.947837,True,0.955
14,0,13-May-2018,1,2,82,Sub14_Trial82_1,1,5,5,-23.737881,True,0.955
14,0,13-May-2018,1,2,82,Sub14_Trial82_1,1,6,6,-4.546651,True,0.955
14,0,13-May-2018,1,2,83,Sub14_Trial83_0,0,0,0,-62.820252,False,0.606
14,0,13-May-2018,1,2,83,Sub14_Trial83_0,0,1,1,-189.23995,False,0.606
14,0,13-May-2018,1,2,83,Sub14_Trial83_0,0,2,2,52.586751,False,0.606
14,0,13-May-2018,1,2,83,Sub14_Trial83_0,0,3,3,65.770875,False,0.606
14,0,13-May-2018,1,2,83,Sub14_Trial83_0,0,4,4,-134.552496,False,0.606
14,0,13-May-2018,1,2,83,Sub14_Trial83_0,0,5,5,-35.452282,False,0.606
14,0,13-May-2018,1,2,83,Sub14_Trial83_0,0,6,6,3.923791,False,0.606
14,0,13-May-2018,1,2,83,Sub14_Trial83_1,1,0,0,-49.535365,True,0.606
14,0,13-May-2018,1,2,83,Sub14_Trial83_1,1,1,1,80.370693,True,0.606
14,0,13-May-2018,1,2,83,Sub14_Trial83_1,1,2,2,-7.005022,True,0.606
14,0,13-May-2018,1,2,83,Sub14_Trial83_1,1,3,3,1.870871,True,0.606
14,0,13-May-2018,1,2,83,Sub14_Trial83_1,1,4,4,14.368919,True,0.606
14,0,13-May-2018,1,2,83,Sub14_Trial83_1,1,5,5,76.484246,True,0.606
14,0,13-May-2018,1,2,83,Sub14_Trial83_1,1,6,6,-54.686423,True,0.606
14,0,13-May-2018,1,2,84,Sub14_Trial84_0,0,0,0,96.644135,False,0.755
14,0,13-May-2018,1,2,84,Sub14_Trial84_0,0,1,1,-30.473225,False,0.755
14,0,13-May-2018,1,2,84,Sub14_Trial84_0,0,2,2,-17.565985,False,0.755
14,0,13-May-2018,1,2,84,Sub14_Trial84_0,0,3,3,10.636825,False,0.755
14,0,13-May-2018,1,2,84,Sub14_Trial84_0,0,4,4,67.330675,False,0.755
14,0,13-May-2018,1,2,84,Sub14_Trial84_0,0,5,5,-51.751693,False,0.755
14,0,13-May-2018,1,2,84,Sub14_Trial84_0,0,6,6,50.388635,False,0.755
14,0,13-May-2018,1,2,84,Sub14_Trial84_1,1,0,0,62.963958,True,0.755
14,0,13-May-2018,1,2,84,Sub14_Trial84_1,1,1,1,-35.591241,True,0.755
14,0,13-May-2018,1,2,84,Sub14_Trial84_1,1,2,2,-172.830794,True,0.755
14,0,13-May-2018,1,2,84,Sub14_Trial84_1,1,3,3,81.518413,True,0.755
14,0,13-May-2018,1,2,84,Sub14_Trial84_1,1,4,4,-52.270429,True,0.755
14,0,13-May-2018,1,2,84,Sub14_Trial84_1,1,5,5,6.828402,True,0.755
14,0,13-May-2018,1,2,84,Sub14_Trial84_1,1,6,6,-18.011398,True,0.755
14,0,13-May-2018,1,2,85,Sub14_Trial85_0,0,0,0,-130.831639,True,0.69
14,0,13-May-2018,1,2,85,Sub14_Trial85_0,0,1,1,109.34904,True,0.69
14,0,13-May-2018,1,2,85,Sub14_Trial85_0,0,2,2,-86.434353,True,0.69
14,0,13-May-2018,1,2,85,Sub14_Trial85_0,0,3,3,144.077724,True,0.69
14,0,13-May-2018,1,2,85,Sub14_Trial85_0,0,4,4,79.719595,True,0.69
14,0,13-May-2018,1,2,85,Sub14_Trial85_0,0,5,5,-154.35829,True,0.69
14,0,13-May-2018,1,2,85,Sub14_Trial85_0,0,6,6,-16.219792,True,0.69
14,0,13-May-2018,1,2,85,Sub14_Trial85_1,1,0,0,50.461871,False,0.69
14,0,13-May-2018,1,2,85,Sub14_Trial85_1,1,1,1,-48.939234,False,0.69
14,0,13-May-2018,1,2,85,Sub14_Trial85_1,1,2,2,78.067299,False,0.69
14,0,13-May-2018,1,2,85,Sub14_Trial85_1,1,3,3,47.477442,False,0.69
14,0,13-May-2018,1,2,85,Sub14_Trial85_1,1,4,4,61.928673,False,0.69
14,0,13-May-2018,1,2,85,Sub14_Trial85_1,1,5,5,-107.186083,False,0.69
14,0,13-May-2018,1,2,85,Sub14_Trial85_1,1,6,6,-59.393689,False,0.69
14,0,13-May-2018,1,2,86,Sub14_Trial86_0,0,0,0,-44.339078,False,0.385
14,0,13-May-2018,1,2,86,Sub14_Trial86_0,0,1,1,-109.944763,False,0.385
14,0,13-May-2018,1,2,86,Sub14_Trial86_0,0,2,2,181.60649,False,0.385
14,0,13-May-2018,1,2,86,Sub14_Trial86_0,0,3,3,10.537582,False,0.385
14,0,13-May-2018,1,2,86,Sub14_Trial86_0,0,4,4,27.297281,False,0.385
14,0,13-May-2018,1,2,86,Sub14_Trial86_0,0,5,5,84.619908,False,0.385
14,0,13-May-2018,1,2,86,Sub14_Trial86_0,0,6,6,41.942635,False,0.385
14,0,13-May-2018,1,2,86,Sub14_Trial86_1,1,0,0,33.595995,True,0.385
14,0,13-May-2018,1,2,86,Sub14_Trial86_1,1,1,1,195.354444,True,0.385
14,0,13-May-2018,1,2,86,Sub14_Trial86_1,1,2,2,-41.832822,True,0.385
14,0,13-May-2018,1,2,86,Sub14_Trial86_1,1,3,3,152.444109,True,0.385
14,0,13-May-2018,1,2,86,Sub14_Trial86_1,1,4,4,196.166721,True,0.385
14,0,13-May-2018,1,2,86,Sub14_Trial86_1,1,5,5,156.978456,True,0.385
14,0,13-May-2018,1,2,86,Sub14_Trial86_1,1,6,6,64.466872,True,0.385
14,0,13-May-2018,1,2,87,Sub14_Trial87_0,0,0,0,31.838142,True,0.693
14,0,13-May-2018,1,2,87,Sub14_Trial87_0,0,1,1,10.874683,True,0.693
14,0,13-May-2018,1,2,87,Sub14_Trial87_0,0,2,2,72.425256,True,0.693
14,0,13-May-2018,1,2,87,Sub14_Trial87_0,0,3,3,-37.787083,True,0.693
14,0,13-May-2018,1,2,87,Sub14_Trial87_0,0,4,4,18.060182,True,0.693
14,0,13-May-2018,1,2,87,Sub14_Trial87_0,0,5,5,-15.892157,True,0.693
14,0,13-May-2018,1,2,87,Sub14_Trial87_0,0,6,6,-10.941719,True,0.693
14,0,13-May-2018,1,2,87,Sub14_Trial87_1,1,0,0,1.984542,False,0.693
14,0,13-May-2018,1,2,87,Sub14_Trial87_1,1,1,1,-14.883807,False,0.693
14,0,13-May-2018,1,2,87,Sub14_Trial87_1,1,2,2,-92.84494,False,0.693
14,0,13-May-2018,1,2,87,Sub14_Trial87_1,1,3,3,187.681213,False,0.693
14,0,13-May-2018,1,2,87,Sub14_Trial87_1,1,4,4,44.771879,False,0.693
14,0,13-May-2018,1,2,87,Sub14_Trial87_1,1,5,5,-101.951495,False,0.693
14,0,13-May-2018,1,2,87,Sub14_Trial87_1,1,6,6,-47.946058,False,0.693
14,0,13-May-2018,1,2,88,Sub14_Trial88_0,0,0,0,80.509265,True,0.512
14,0,13-May-2018,1,2,88,Sub14_Trial88_0,0,1,1,75.479383,True,0.512
14,0,13-May-2018,1,2,88,Sub14_Trial88_0,0,2,2,-146.299895,True,0.512
14,0,13-May-2018,1,2,88,Sub14_Trial88_0,0,3,3,-126.955364,True,0.512
14,0,13-May-2018,1,2,88,Sub14_Trial88_0,0,4,4,2.788192,True,0.512
14,0,13-May-2018,1,2,88,Sub14_Trial88_0,0,5,5,6.427594,True,0.512
14,0,13-May-2018,1,2,88,Sub14_Trial88_0,0,6,6,-42.881846,True,0.512
14,0,13-May-2018,1,2,88,Sub14_Trial88_1,1,0,0,-76.592654,False,0.512
14,0,13-May-2018,1,2,88,Sub14_Trial88_1,1,1,1,-20.981395,False,0.512
14,0,13-May-2018,1,2,88,Sub14_Trial88_1,1,2,2,130.325793,False,0.512
14,0,13-May-2018,1,2,88,Sub14_Trial88_1,1,3,3,-21.510513,False,0.512
14,0,13-May-2018,1,2,88,Sub14_Trial88_1,1,4,4,-8.400941,False,0.512
14,0,13-May-2018,1,2,88,Sub14_Trial88_1,1,5,5,44.811278,False,0.512
14,0,13-May-2018,1,2,88,Sub14_Trial88_1,1,6,6,106.598242,False,0.512
14,0,13-May-2018,1,2,89,Sub14_Trial89_0,0,0,0,3.610971,True,0.834
14,0,13-May-2018,1,2,89,Sub14_Trial89_0,0,1,1,107.799232,True,0.834
14,0,13-May-2018,1,2,89,Sub14_Trial89_0,0,2,2,-18.881809,True,0.834
14,0,13-May-2018,1,2,89,Sub14_Trial89_0,0,3,3,85.193215,True,0.834
14,0,13-May-2018,1,2,89,Sub14_Trial89_0,0,4,4,-108.532422,True,0.834
14,0,13-May-2018,1,2,89,Sub14_Trial89_0,0,5,5,46.294518,True,0.834
14,0,13-May-2018,1,2,89,Sub14_Trial89_0,0,6,6,-41.055927,True,0.834
14,0,13-May-2018,1,2,89,Sub14_Trial89_1,1,0,0,-0.921159,False,0.834
14,0,13-May-2018,1,2,89,Sub14_Trial89_1,1,1,1,130.338536,False,0.834
14,0,13-May-2018,1,2,89,Sub14_Trial89_1,1,2,2,70.840819,False,0.834
14,0,13-May-2018,1,2,89,Sub14_Trial89_1,1,3,3,-49.820309,False,0.834
14,0,13-May-2018,1,2,89,Sub14_Trial89_1,1,4,4,126.921761,False,0.834
14,0,13-May-2018,1,2,89,Sub14_Trial89_1,1,5,5,12.757953,False,0.834
14,0,13-May-2018,1,2,89,Sub14_Trial89_1,1,6,6,-28.826176,False,0.834
14,0,13-May-2018,1,2,90,Sub14_Trial90_0,0,0,0,-101.996554,True,1.087
14,0,13-May-2018,1,2,90,Sub14_Trial90_0,0,1,1,-2.617768,True,1.087
14,0,13-May-2018,1,2,90,Sub14_Trial90_0,0,2,2,13.316485,True,1.087
14,0,13-May-2018,1,2,90,Sub14_Trial90_0,0,3,3,-4.987258,True,1.087
14,0,13-May-2018,1,2,90,Sub14_Trial90_0,0,4,4,-14.209429,True,1.087
14,0,13-May-2018,1,2,90,Sub14_Trial90_0,0,5,5,-153.328196,True,1.087
14,0,13-May-2018,1,2,90,Sub14_Trial90_0,0,6,6,-121.143224,True,1.087
14,0,13-May-2018,1,2,90,Sub14_Trial90_1,1,0,0,41.440879,False,1.087
14,0,13-May-2018,1,2,90,Sub14_Trial90_1,1,1,1,-21.261698,False,1.087
14,0,13-May-2018,1,2,90,Sub14_Trial90_1,1,2,2,-15.055581,False,1.087
14,0,13-May-2018,1,2,90,Sub14_Trial90_1,1,3,3,159.662403,False,1.087
14,0,13-May-2018,1,2,90,Sub14_Trial90_1,1,4,4,72.288313,False,1.087
14,0,13-May-2018,1,2,90,Sub14_Trial90_1,1,5,5,-179.696079,False,1.087
14,0,13-May-2018,1,2,90,Sub14_Trial90_1,1,6,6,-79.740542,False,1.087
14,0,13-May-2018,1,2,91,Sub14_Trial91_0,0,0,0,166.063907,False,0.489
14,0,13-May-2018,1,2,91,Sub14_Trial91_0,0,1,1,-9.654564,False,0.489
14,0,13-May-2018,1,2,91,Sub14_Trial91_0,0,2,2,-33.13895,False,0.489
14,0,13-May-2018,1,2,91,Sub14_Trial91_0,0,3,3,-32.009971,False,0.489
14,0,13-May-2018,1,2,91,Sub14_Trial91_0,0,4,4,72.488412,False,0.489
14,0,13-May-2018,1,2,91,Sub14_Trial91_0,0,5,5,20.261405,False,0.489
14,0,13-May-2018,1,2,91,Sub14_Trial91_0,0,6,6,-43.849685,False,0.489
14,0,13-May-2018,1,2,91,Sub14_Trial91_1,1,0,0,60.939255,True,0.489
14,0,13-May-2018,1,2,91,Sub14_Trial91_1,1,1,1,74.282263,True,0.489
14,0,13-May-2018,1,2,91,Sub14_Trial91_1,1,2,2,122.964711,True,0.489
14,0,13-May-2018,1,2,91,Sub14_Trial91_1,1,3,3,24.440285,True,0.489
14,0,13-May-2018,1,2,91,Sub14_Trial91_1,1,4,4,-71.079694,True,0.489
14,0,13-May-2018,1,2,91,Sub14_Trial91_1,1,5,5,157.009827,True,0.489
14,0,13-May-2018,1,2,91,Sub14_Trial91_1,1,6,6,37.69208,True,0.489
14,0,13-May-2018,1,2,92,Sub14_Trial92_0,0,0,0,-100.393702,True,0.887
14,0,13-May-2018,1,2,92,Sub14_Trial92_0,0,1,1,91.399882,True,0.887
14,0,13-May-2018,1,2,92,Sub14_Trial92_0,0,2,2,-156.403917,True,0.887
14,0,13-May-2018,1,2,92,Sub14_Trial92_0,0,3,3,-59.828097,True,0.887
14,0,13-May-2018,1,2,92,Sub14_Trial92_0,0,4,4,30.514792,True,0.887
14,0,13-May-2018,1,2,92,Sub14_Trial92_0,0,5,5,21.349748,True,0.887
14,0,13-May-2018,1,2,92,Sub14_Trial92_0,0,6,6,17.325237,True,0.887
14,0,13-May-2018,1,2,92,Sub14_Trial92_1,1,0,0,-27.154233,False,0.887
14,0,13-May-2018,1,2,92,Sub14_Trial92_1,1,1,1,-18.669158,False,0.887
14,0,13-May-2018,1,2,92,Sub14_Trial92_1,1,2,2,42.444722,False,0.887
14,0,13-May-2018,1,2,92,Sub14_Trial92_1,1,3,3,91.27819,False,0.887
14,0,13-May-2018,1,2,92,Sub14_Trial92_1,1,4,4,-126.853765,False,0.887
14,0,13-May-2018,1,2,92,Sub14_Trial92_1,1,5,5,23.352893,False,0.887
14,0,13-May-2018,1,2,92,Sub14_Trial92_1,1,6,6,-20.177574,False,0.887
14,0,13-May-2018,1,2,93,Sub14_Trial93_0,0,0,0,3.416373,False,0.414
14,0,13-May-2018,1,2,93,Sub14_Trial93_0,0,1,1,-181.62332,False,0.414
14,0,13-May-2018,1,2,93,Sub14_Trial93_0,0,2,2,58.726699,False,0.414
14,0,13-May-2018,1,2,93,Sub14_Trial93_0,0,3,3,109.609493,False,0.414
14,0,13-May-2018,1,2,93,Sub14_Trial93_0,0,4,4,-61.430477,False,0.414
14,0,13-May-2018,1,2,93,Sub14_Trial93_0,0,5,5,-92.169395,False,0.414
14,0,13-May-2018,1,2,93,Sub14_Trial93_0,0,6,6,-31.310827,False,0.414
14,0,13-May-2018,1,2,93,Sub14_Trial93_1,1,0,0,-167.157348,True,0.414
14,0,13-May-2018,1,2,93,Sub14_Trial93_1,1,1,1,73.530366,True,0.414
14,0,13-May-2018,1,2,93,Sub14_Trial93_1,1,2,2,-51.765018,True,0.414
14,0,13-May-2018,1,2,93,Sub14_Trial93_1,1,3,3,-75.54484,True,0.414
14,0,13-May-2018,1,2,93,Sub14_Trial93_1,1,4,4,-13.983765,True,0.414
14,0,13-May-2018,1,2,93,Sub14_Trial93_1,1,5,5,163.172225,True,0.414
14,0,13-May-2018,1,2,93,Sub14_Trial93_1,1,6,6,77.087137,True,0.414
14,0,13-May-2018,1,2,94,Sub14_Trial94_0,0,0,0,122.148957,True,0.846
14,0,13-May-2018,1,2,94,Sub14_Trial94_0,0,1,1,138.000831,True,0.846
14,0,13-May-2018,1,2,94,Sub14_Trial94_0,0,2,2,-19.814068,True,0.846
14,0,13-May-2018,1,2,94,Sub14_Trial94_0,0,3,3,-7.408135,True,0.846
14,0,13-May-2018,1,2,94,Sub14_Trial94_0,0,4,4,-80.140126,True,0.846
14,0,13-May-2018,1,2,94,Sub14_Trial94_0,0,5,5,-30.935466,True,0.846
14,0,13-May-2018,1,2,94,Sub14_Trial94_0,0,6,6,-25.79022,True,0.846
14,0,13-May-2018,1,2,94,Sub14_Trial94_1,1,0,0,-9.717656,False,0.846
14,0,13-May-2018,1,2,94,Sub14_Trial94_1,1,1,1,-158.705443,False,0.846
14,0,13-May-2018,1,2,94,Sub14_Trial94_1,1,2,2,13.780833,False,0.846
14,0,13-May-2018,1,2,94,Sub14_Trial94_1,1,3,3,-52.343684,False,0.846
14,0,13-May-2018,1,2,94,Sub14_Trial94_1,1,4,4,-29.278831,False,0.846
14,0,13-May-2018,1,2,94,Sub14_Trial94_1,1,5,5,18.977143,False,0.846
14,0,13-May-2018,1,2,94,Sub14_Trial94_1,1,6,6,27.826379,False,0.846
14,0,13-May-2018,1,2,95,Sub14_Trial95_0,0,0,0,136.810439,False,0.413
14,0,13-May-2018,1,2,95,Sub14_Trial95_0,0,1,1,4.994415,False,0.413
14,0,13-May-2018,1,2,95,Sub14_Trial95_0,0,2,2,-62.097092,False,0.413
14,0,13-May-2018,1,2,95,Sub14_Trial95_0,0,3,3,-39.353566,False,0.413
14,0,13-May-2018,1,2,95,Sub14_Trial95_0,0,4,4,11.807863,False,0.413
14,0,13-May-2018,1,2,95,Sub14_Trial95_0,0,5,5,-113.45223,False,0.413
14,0,13-May-2018,1,2,95,Sub14_Trial95_0,0,6,6,-72.397969,False,0.413
14,0,13-May-2018,1,2,95,Sub14_Trial95_1,1,0,0,-83.517583,True,0.413
14,0,13-May-2018,1,2,95,Sub14_Trial95_1,1,1,1,-46.421923,True,0.413
14,0,13-May-2018,1,2,95,Sub14_Trial95_1,1,2,2,-139.697418,True,0.413
14,0,13-May-2018,1,2,95,Sub14_Trial95_1,1,3,3,76.907862,True,0.413
14,0,13-May-2018,1,2,95,Sub14_Trial95_1,1,4,4,-98.724582,True,0.413
14,0,13-May-2018,1,2,95,Sub14_Trial95_1,1,5,5,88.371067,True,0.413
14,0,13-May-2018,1,2,95,Sub14_Trial95_1,1,6,6,-20.687042,True,0.413
14,0,13-May-2018,1,2,96,Sub14_Trial96_0,0,0,0,6.799186,True,0.777
14,0,13-May-2018,1,2,96,Sub14_Trial96_0,0,1,1,92.203186,True,0.777
14,0,13-May-2018,1,2,96,Sub14_Trial96_0,0,2,2,-29.067764,True,0.777
14,0,13-May-2018,1,2,96,Sub14_Trial96_0,0,3,3,-27.457045,True,0.777
14,0,13-May-2018,1,2,96,Sub14_Trial96_0,0,4,4,97.580983,True,0.777
14,0,13-May-2018,1,2,96,Sub14_Trial96_0,0,5,5,89.210176,True,0.777
14,0,13-May-2018,1,2,96,Sub14_Trial96_0,0,6,6,-116.379226,True,0.777
14,0,13-May-2018,1,2,96,Sub14_Trial96_1,1,0,0,1.750207,False,0.777
14,0,13-May-2018,1,2,96,Sub14_Trial96_1,1,1,1,19.002816,False,0.777
14,0,13-May-2018,1,2,96,Sub14_Trial96_1,1,2,2,-74.628043,False,0.777
14,0,13-May-2018,1,2,96,Sub14_Trial96_1,1,3,3,34.961057,False,0.777
14,0,13-May-2018,1,2,96,Sub14_Trial96_1,1,4,4,-65.895299,False,0.777
14,0,13-May-2018,1,2,96,Sub14_Trial96_1,1,5,5,-61.048829,False,0.777
14,0,13-May-2018,1,2,96,Sub14_Trial96_1,1,6,6,-117.114448,False,0.777
14,0,13-May-2018,1,2,97,Sub14_Trial97_0,0,0,0,-113.962699,True,0.44
14,0,13-May-2018,1,2,97,Sub14_Trial97_0,0,1,1,141.859338,True,0.44
14,0,13-May-2018,1,2,97,Sub14_Trial97_0,0,2,2,-29.503012,True,0.44
14,0,13-May-2018,1,2,97,Sub14_Trial97_0,0,3,3,-28.780873,True,0.44
14,0,13-May-2018,1,2,97,Sub14_Trial97_0,0,4,4,40.868098,True,0.44
14,0,13-May-2018,1,2,97,Sub14_Trial97_0,0,5,5,8.329074,True,0.44
14,0,13-May-2018,1,2,97,Sub14_Trial97_0,0,6,6,-24.486253,True,0.44
14,0,13-May-2018,1,2,97,Sub14_Trial97_1,1,0,0,109.433779,False,0.44
14,0,13-May-2018,1,2,97,Sub14_Trial97_1,1,1,1,23.065099,False,0.44
14,0,13-May-2018,1,2,97,Sub14_Trial97_1,1,2,2,16.164043,False,0.44
14,0,13-May-2018,1,2,97,Sub14_Trial97_1,1,3,3,-80.300103,False,0.44
14,0,13-May-2018,1,2,97,Sub14_Trial97_1,1,4,4,29.973011,False,0.44
14,0,13-May-2018,1,2,97,Sub14_Trial97_1,1,5,5,6.942075,False,0.44
14,0,13-May-2018,1,2,97,Sub14_Trial97_1,1,6,6,-42.936012,False,0.44
14,0,13-May-2018,1,2,98,Sub14_Trial98_0,0,0,0,157.506852,False,0.406
14,0,13-May-2018,1,2,98,Sub14_Trial98_0,0,1,1,-127.022816,False,0.406
14,0,13-May-2018,1,2,98,Sub14_Trial98_0,0,2,2,-162.060577,False,0.406
14,0,13-May-2018,1,2,98,Sub14_Trial98_0,0,3,3,3.087126,False,0.406
14,0,13-May-2018,1,2,98,Sub14_Trial98_0,0,4,4,-193.889091,False,0.406
14,0,13-May-2018,1,2,98,Sub14_Trial98_0,0,5,5,-6.169932,False,0.406
14,0,13-May-2018,1,2,98,Sub14_Trial98_0,0,6,6,-76.685463,False,0.406
14,0,13-May-2018,1,2,98,Sub14_Trial98_1,1,0,0,141.679191,True,0.406
14,0,13-May-2018,1,2,98,Sub14_Trial98_1,1,1,1,-95.660469,True,0.406
14,0,13-May-2018,1,2,98,Sub14_Trial98_1,1,2,2,30.351,True,0.406
14,0,13-May-2018,1,2,98,Sub14_Trial98_1,1,3,3,-95.240134,True,0.406
14,0,13-May-2018,1,2,98,Sub14_Trial98_1,1,4,4,116.164895,True,0.406
14,0,13-May-2018,1,2,98,Sub14_Trial98_1,1,5,5,-43.829872,True,0.406
14,0,13-May-2018,1,2,98,Sub14_Trial98_1,1,6,6,14.902385,True,0.406
14,0,13-May-2018,1,2,99,Sub14_Trial99_0,0,0,0,-101.424743,True,0.573
14,0,13-May-2018,1,2,99,Sub14_Trial99_0,0,1,1,-131.875651,True,0.573
14,0,13-May-2018,1,2,99,Sub14_Trial99_0,0,2,2,-49.72826,True,0.573
14,0,13-May-2018,1,2,99,Sub14_Trial99_0,0,3,3,145.418823,True,0.573
14,0,13-May-2018,1,2,99,Sub14_Trial99_0,0,4,4,96.097574,True,0.573
14,0,13-May-2018,1,2,99,Sub14_Trial99_0,0,5,5,28.771718,True,0.573
14,0,13-May-2018,1,2,99,Sub14_Trial99_0,0,6,6,62.453156,True,0.573
14,0,13-May-2018,1,2,99,Sub14_Trial99_1,1,0,0,-48.523059,False,0.573
14,0,13-May-2018,1,2,99,Sub14_Trial99_1,1,1,1,-40.176901,False,0.573
14,0,13-May-2018,1,2,99,Sub14_Trial99_1,1,2,2,90.355213,False,0.573
14,0,13-May-2018,1,2,99,Sub14_Trial99_1,1,3,3,35.53066,False,0.573
14,0,13-May-2018,1,2,99,Sub14_Trial99_1,1,4,4,-33.07919,False,0.573
14,0,13-May-2018,1,2,99,Sub14_Trial99_1,1,5,5,-146.794428,False,0.573
14,0,13-May-2018,1,2,99,Sub14_Trial99_1,1,6,6,-38.465314,False,0.573
14,0,13-May-2018,1,2,100,Sub14_Trial100_0,0,0,0,63.633782,False,0.86
14,0,13-May-2018,1,2,100,Sub14_Trial100_0,0,1,1,-3.423282,False,0.86
14,0,13-May-2018,1,2,100,Sub14_Trial100_0,0,2,2,-142.345608,False,0.86
14,0,13-May-2018,1,2,100,Sub14_Trial100_0,0,3,3,-192.254214,False,0.86
14,0,13-May-2018,1,2,100,Sub14_Trial100_0,0,4,4,-36.503069,False,0.86
14,0,13-May-2018,1,2,100,Sub14_Trial100_0,0,5,5,-42.289814,False,0.86
14,0,13-May-2018,1,2,100,Sub14_Trial100_0,0,6,6,-57.529237,False,0.86
14,0,13-May-2018,1,2,100,Sub14_Trial100_1,1,0,0,88.904608,True,0.86
14,0,13-May-2018,1,2,100,Sub14_Trial100_1,1,1,1,-19.455381,True,0.86
14,0,13-May-2018,1,2,100,Sub14_Trial100_1,1,2,2,-197.906437,True,0.86
14,0,13-May-2018,1,2,100,Sub14_Trial100_1,1,3,3,-104.778483,True,0.86
14,0,13-May-2018,1,2,100,Sub14_Trial100_1,1,4,4,-111.942302,True,0.86
14,0,13-May-2018,1,2,100,Sub14_Trial100_1,1,5,5,25.303635,True,0.86
14,0,13-May-2018,1,2,100,Sub14_Trial100_1,1,6,6,-117.035426,True,0.86
14,0,13-May-2018,1,3,101,Sub14_Trial101_0,0,0,0,50.644934,False,1.805
14,0,13-May-2018,1,3,101,Sub14_Trial101_0,0,1,1,153.299688,False,1.805
14,0,13-May-2018,1,3,101,Sub14_Trial101_0,0,2,2,87.414154,False,1.805
14,0,13-May-2018,1,3,101,Sub14_Trial101_0,0,3,3,-93.924288,False,1.805
14,0,13-May-2018,1,3,101,Sub14_Trial101_0,0,4,4,-39.633554,False,1.805
14,0,13-May-2018,1,3,101,Sub14_Trial101_0,0,5,5,19.184987,False,1.805
14,0,13-May-2018,1,3,101,Sub14_Trial101_0,0,6,6,11.241255,False,1.805
14,0,13-May-2018,1,3,101,Sub14_Trial101_1,1,0,0,37.194964,True,1.805
14,0,13-May-2018,1,3,101,Sub14_Trial101_1,1,1,1,-85.233138,True,1.805
14,0,13-May-2018,1,3,101,Sub14_Trial101_1,1,2,2,16.370506,True,1.805
14,0,13-May-2018,1,3,101,Sub14_Trial101_1,1,3,3,49.198259,True,1.805
14,0,13-May-2018,1,3,101,Sub14_Trial101_1,1,4,4,-6.969023,True,1.805
14,0,13-May-2018,1,3,101,Sub14_Trial101_1,1,5,5,72.095028,True,1.805
14,0,13-May-2018,1,3,101,Sub14_Trial101_1,1,6,6,-60.982583,True,1.805
14,0,13-May-2018,1,3,102,Sub14_Trial102_0,0,0,0,-131.175525,True,1.9
14,0,13-May-2018,1,3,102,Sub14_Trial102_0,0,1,1,34.652132,True,1.9
14,0,13-May-2018,1,3,102,Sub14_Trial102_0,0,2,2,-90.91622,True,1.9
14,0,13-May-2018,1,3,102,Sub14_Trial102_0,0,3,3,174.507962,True,1.9
14,0,13-May-2018,1,3,102,Sub14_Trial102_0,0,4,4,-119.78345,True,1.9
14,0,13-May-2018,1,3,102,Sub14_Trial102_0,0,5,5,-91.261779,True,1.9
14,0,13-May-2018,1,3,102,Sub14_Trial102_0,0,6,6,83.042929,True,1.9
14,0,13-May-2018,1,3,102,Sub14_Trial102_1,1,0,0,5.624024,False,1.9
14,0,13-May-2018,1,3,102,Sub14_Trial102_1,1,1,1,-135.163151,False,1.9
14,0,13-May-2018,1,3,102,Sub14_Trial102_1,1,2,2,0.263128,False,1.9
14,0,13-May-2018,1,3,102,Sub14_Trial102_1,1,3,3,-41.434385,False,1.9
14,0,13-May-2018,1,3,102,Sub14_Trial102_1,1,4,4,66.105002,False,1.9
14,0,13-May-2018,1,3,102,Sub14_Trial102_1,1,5,5,-108.051469,False,1.9
14,0,13-May-2018,1,3,102,Sub14_Trial102_1,1,6,6,22.110205,False,1.9
14,0,13-May-2018,1,3,103,Sub14_Trial103_0,0,0,0,-71.80374,True,0.367
14,0,13-May-2018,1,3,103,Sub14_Trial103_0,0,1,1,-101.503354,True,0.367
14,0,13-May-2018,1,3,103,Sub14_Trial103_0,0,2,2,-88.453365,True,0.367
14,0,13-May-2018,1,3,103,Sub14_Trial103_0,0,3,3,62.048636,True,0.367
14,0,13-May-2018,1,3,103,Sub14_Trial103_0,0,4,4,-47.28724,True,0.367
14,0,13-May-2018,1,3,103,Sub14_Trial103_0,0,5,5,-22.692635,True,0.367
14,0,13-May-2018,1,3,103,Sub14_Trial103_0,0,6,6,111.600712,True,0.367
14,0,13-May-2018,1,3,103,Sub14_Trial103_1,1,0,0,-16.345754,False,0.367
14,0,13-May-2018,1,3,103,Sub14_Trial103_1,1,1,1,37.93782,False,0.367
14,0,13-May-2018,1,3,103,Sub14_Trial103_1,1,2,2,26.394331,False,0.367
14,0,13-May-2018,1,3,103,Sub14_Trial103_1,1,3,3,-159.712134,False,0.367
14,0,13-May-2018,1,3,103,Sub14_Trial103_1,1,4,4,-27.313999,False,0.367
14,0,13-May-2018,1,3,103,Sub14_Trial103_1,1,5,5,-70.623444,False,0.367
14,0,13-May-2018,1,3,103,Sub14_Trial103_1,1,6,6,30.403189,False,0.367
14,0,13-May-2018,1,3,104,Sub14_Trial104_0,0,0,0,57.746598,False,0.526
14,0,13-May-2018,1,3,104,Sub14_Trial104_0,0,1,1,80.373587,False,0.526
14,0,13-May-2018,1,3,104,Sub14_Trial104_0,0,2,2,-51.521589,False,0.526
14,0,13-May-2018,1,3,104,Sub14_Trial104_0,0,3,3,11.930687,False,0.526
14,0,13-May-2018,1,3,104,Sub14_Trial104_0,0,4,4,30.624333,False,0.526
14,0,13-May-2018,1,3,104,Sub14_Trial104_0,0,5,5,-58.828675,False,0.526
14,0,13-May-2018,1,3,104,Sub14_Trial104_0,0,6,6,8.372717,False,0.526
14,0,13-May-2018,1,3,104,Sub14_Trial104_1,1,0,0,38.156063,True,0.526
14,0,13-May-2018,1,3,104,Sub14_Trial104_1,1,1,1,147.173067,True,0.526
14,0,13-May-2018,1,3,104,Sub14_Trial104_1,1,2,2,27.391797,True,0.526
14,0,13-May-2018,1,3,104,Sub14_Trial104_1,1,3,3,129.294269,True,0.526
14,0,13-May-2018,1,3,104,Sub14_Trial104_1,1,4,4,143.427011,True,0.526
14,0,13-May-2018,1,3,104,Sub14_Trial104_1,1,5,5,-149.476817,True,0.526
14,0,13-May-2018,1,3,104,Sub14_Trial104_1,1,6,6,-88.708762,True,0.526
14,0,13-May-2018,1,3,105,Sub14_Trial105_0,0,0,0,102.097882,True,1.61
14,0,13-May-2018,1,3,105,Sub14_Trial105_0,0,1,1,69.344708,True,1.61
14,0,13-May-2018,1,3,105,Sub14_Trial105_0,0,2,2,3.813859,True,1.61
14,0,13-May-2018,1,3,105,Sub14_Trial105_0,0,3,3,-21.769774,True,1.61
14,0,13-May-2018,1,3,105,Sub14_Trial105_0,0,4,4,-55.067227,True,1.61
14,0,13-May-2018,1,3,105,Sub14_Trial105_0,0,5,5,-152.827915,True,1.61
14,0,13-May-2018,1,3,105,Sub14_Trial105_0,0,6,6,133.253611,True,1.61
14,0,13-May-2018,1,3,105,Sub14_Trial105_1,1,0,0,-60.13078,False,1.61
14,0,13-May-2018,1,3,105,Sub14_Trial105_1,1,1,1,-19.843271,False,1.61
14,0,13-May-2018,1,3,105,Sub14_Trial105_1,1,2,2,-23.553326,False,1.61
14,0,13-May-2018,1,3,105,Sub14_Trial105_1,1,3,3,-31.564429,False,1.61
14,0,13-May-2018,1,3,105,Sub14_Trial105_1,1,4,4,41.326158,False,1.61
14,0,13-May-2018,1,3,105,Sub14_Trial105_1,1,5,5,-27.269713,False,1.61
14,0,13-May-2018,1,3,105,Sub14_Trial105_1,1,6,6,-30.211671,False,1.61
14,0,13-May-2018,1,3,106,Sub14_Trial106_0,0,0,0,-27.000606,False,0.328
